timestamp,accel_x,accel_y,accel_z,gyro_x,gyro_y,gyro_z,angle_x,angle_y,lfoot_fl,lfoot_fr,lfoot_rl,lfoot_rr,rfoot_fl,rfoot_fr,rfoot_rl,rfoot_rr,vx,vy,wz,vtotal,StepHeight,MaxStepX,MaxStepY,MaxStepTheta,Frequency,stable
16:49:02.820,0.94842779636383057,0.1149609386920929,-9.9728612899780273,-0.0034621094819158316,0.001065264455974102,0.0,-0.0076697510667145252,0.059633079916238785,0.1138596311211586,0.0,1.1771913766860962,0.45190894603729248,0.056103136390447617,0.39259183406829834,0.84206897020339966,0.68094104528427124,0.0,0.0,0.0,0.0,0.025000000000000001,0.040000000000000001,0.14000000000000001,0.29999999999999999,0.80000000000000004,1
16:49:02.862,0.94842779636383057,0.1149609386920929,-9.9728612899780273,-0.0034621094819158316,0.001065264455974102,0.0,-0.0076697510667145252,0.059633079916238785,0.1138596311211586,0.0,1.1771913766860962,0.45190894603729248,0.056103136390447617,0.39259183406829834,0.84206897020339966,0.68094104528427124,0.0,0.0,0.0,0.0,0.025000000000000001,0.040000000000000001,0.14000000000000001,0.29999999999999999,0.80000000000000004,1
16:49:02.919,0.94842779636383057,0.1149609386920929,-9.9728612899780273,-0.0034621094819158316,0.001065264455974102,0.0,-0.0076697510667145252,0.059633079916238785,0.1138596311211586,0.0,1.1771913766860962,0.45190894603729248,0.056103136390447617,0.39259183406829834,0.84206897020339966,0.68094104528427124,0.0,0.0,0.0,0.0,0.025000000000000001,0.040000000000000001,0.14000000000000001,0.29999999999999999,0.80000000000000004,1
16:49:02.965,0.94842779636383057,0.1149609386920929,-9.9728612899780273,-0.0034621094819158316,0.001065264455974102,0.0,-0.0076697510667145252,0.059633079916238785,0.1138596311211586,0.0,1.1771913766860962,0.45190894603729248,0.056103136390447617,0.39259183406829834,0.84206897020339966,0.68094104528427124,0.0,0.0,0.0,0.0,0.025000000000000001,0.040000000000000001,0.14000000000000001,0.29999999999999999,0.80000000000000004,1
16:49:03.051,0.94842779636383057,0.1149609386920929,-9.9728612899780273,0.00053263222798705101,-0.00079894834198057652,0.0,-0.0076697510667145252,0.059825245290994644,0.1138596311211586,0.0,1.1771913766860962,0.45068934559822083,0.055670946836471558,0.39259183406829834,0.84206897020339966,0.68094104528427124,0.0,0.0,0.0,0.0,0.025000000000000001,0.040000000000000001,0.14000000000000001,0.29999999999999999,0.80000000000000004,1
16:49:03.079,0.96758794784545898,0.10538086295127869,-10.001602172851562,0.00053263222798705101,-0.00079894834198057652,0.0,-0.007478062529116869,0.059825245290994644,0.11340594291687012,0.0,1.1771913766860962,0.45068934559822083,0.055670946836471558,0.39435410499572754,0.84206897020339966,0.683208167552948,0.0,0.0,0.0,0.0,0.025000000000000001,0.040000000000000001,0.14000000000000001,0.29999999999999999,0.80000000000000004,1
16:49:03.126,0.96758794784545898,0.10538086295127869,-10.001602172851562,0.00053263222798705101,-0.00079894834198057652,0.0,-0.007478062529116869,0.059825245290994644,0.11340594291687012,0.0,1.1771913766860962,0.45068934559822083,0.055670946836471558,0.39435410499572754,0.84206897020339966,0.683208167552948,0.0,0.0,0.0,0.0,0.025000000000000001,0.040000000000000001,0.14000000000000001,0.29999999999999999,0.80000000000000004,1
16:49:03.177,0.96758794784545898,0.10538086295127869,-10.001602172851562,0.00053263222798705101,-0.00079894834198057652,0.0,-0.007478062529116869,0.059825245290994644,0.11340594291687012,0.0,1.1771913766860962,0.45068934559822083,0.055670946836471558,0.39435410499572754,0.84206897020339966,0.683208167552948,0.0,0.0,0.0,0.0,0.025000000000000001,0.040000000000000001,0.14000000000000001,0.29999999999999999,0.80000000000000004,1
16:49:03.224,0.96758794784545898,0.10538086295127869,-10.001602172851562,0.00053263222798705101,-0.00079894834198057652,0.0,-0.007478062529116869,0.059825245290994644,0.11340594291687012,0.0,1.1771913766860962,0.45068934559822083,0.055670946836471558,0.39435410499572754,0.84206897020339966,0.683208167552948,0.0,0.0,0.0,0.0,0.025000000000000001,0.040000000000000001,0.14000000000000001,0.29999999999999999,0.80000000000000004,1
16:49:03.273,0.96758794784545898,0.10538086295127869,-10.001602172851562,0.00053263222798705101,-0.00079894834198057652,0.0,-0.007478062529116869,0.059825245290994644,0.11340594291687012,0.0,1.1771913766860962,0.45068934559822083,0.055670946836471558,0.39435410499572754,0.84206897020339966,0.683208167552948,0.0,0.0,0.0,0.0,0.025000000000000001,0.040000000000000001,0.14000000000000001,0.29999999999999999,0.80000000000000004,1
16:49:03.323,0.96758794784545898,0.10538086295127869,-10.001602172851562,0.00053263222798705101,-0.00079894834198057652,0.0,-0.007478062529116869,0.059825245290994644,0.11340594291687012,0.0,1.1771913766860962,0.45068934559822083,0.055670946836471558,0.39435410499572754,0.84206897020339966,0.683208167552948,0.0,0.0,0.0,0.0,0.025000000000000001,0.040000000000000001,0.14000000000000001,0.29999999999999999,0.80000000000000004,1
16:49:03.395,1.1591894626617432,0.038320314139127731,-9.9345417022705078,-0.011451592668890953,0.079095885157585144,0.020506341010332108,-0.007478062529116869,0.060975376516580582,0.14776909351348877,0.013426042161881924,1.0480259656906128,0.42955517768859863,0.079033911228179932,0.39435410499572754,0.74781697988510132,0.55297529697418213,0.0,0.0,0.0,0.0,0.025000000000000001,0.040000000000000001,0.14000000000000001,0.29999999999999999,0.80000000000000004,1
16:49:03.426,1.1591894626617432,0.038320314139127731,-9.9345417022705078,-0.011451592668890953,0.079095885157585144,0.020506341010332108,-0.0065191430039703846,0.060975376516580582,0.14776909351348877,0.013426042161881924,1.0480259656906128,0.42955517768859863,0.079033911228179932,0.47904315590858459,0.74781697988510132,0.55297529697418213,0.0,0.0,0.0,0.0,0.025000000000000001,0.040000000000000001,0.14000000000000001,0.29999999999999999,0.80000000000000004,1
16:49:03.474,1.1591894626617432,0.038320314139127731,-9.9345417022705078,-0.011451592668890953,0.079095885157585144,0.020506341010332108,-0.0065191430039703846,0.060975376516580582,0.14776909351348877,0.013426042161881924,1.0480259656906128,0.42955517768859863,0.079033911228179932,0.47904315590858459,0.74781697988510132,0.55297529697418213,0.0,0.0,0.0,0.0,0.025000000000000001,0.040000000000000001,0.14000000000000001,0.29999999999999999,0.80000000000000004,1
16:49:03.526,1.1591894626617432,0.038320314139127731,-9.9345417022705078,-0.011451592668890953,0.079095885157585144,0.020506341010332108,-0.0065191430039703846,0.060975376516580582,0.14776909351348877,0.013426042161881924,1.0480259656906128,0.42955517768859863,0.079033911228179932,0.47904315590858459,0.74781697988510132,0.55297529697418213,0.0,0.0,0.0,0.0,0.025000000000000001,0.040000000000000001,0.14000000000000001,0.29999999999999999,0.80000000000000004,1
16:49:03.575,1.1591894626617432,0.038320314139127731,-9.9345417022705078,-0.011451592668890953,0.079095885157585144,0.020506341010332108,-0.0065191430039703846,0.060975376516580582,0.14776909351348877,0.013426042161881924,1.0480259656906128,0.42955517768859863,0.079033911228179932,0.47904315590858459,0.74781697988510132,0.55297529697418213,0.0,0.0,0.0,0.0,0.025000000000000001,0.040000000000000001,0.14000000000000001,0.29999999999999999,0.80000000000000004,1
16:49:03.624,1.1591894626617432,0.038320314139127731,-9.9345417022705078,-0.011451592668890953,0.079095885157585144,0.020506341010332108,-0.0065191430039703846,0.060975376516580582,0.14776909351348877,0.013426042161881924,1.0480259656906128,0.42955517768859863,0.079033911228179932,0.47904315590858459,0.74781697988510132,0.55297529697418213,0.0,0.0,0.0,0.0,0.025000000000000001,0.040000000000000001,0.14000000000000001,0.29999999999999999,0.80000000000000004,1
16:49:03.686,1.1591894626617432,0.038320314139127731,-9.9345417022705078,-0.011451592668890953,0.079095885157585144,0.020506341010332108,-0.0065191430039703846,0.060975376516580582,0.14776909351348877,0.013426042161881924,1.0480259656906128,0.42955517768859863,0.079033911228179932,0.47904315590858459,0.74781697988510132,0.55297529697418213,0.0,0.0,0.0,0.0,0.025000000000000001,0.040000000000000001,0.14000000000000001,0.29999999999999999,0.80000000000000004,1
16:49:03.732,1.1400293111801147,0.16286133229732513,-9.9345417022705078,-0.0026631611399352551,0.011451592668890953,-0.0085221156477928162,-0.0065191430039703846,0.064618892967700958,0.13816449046134949,0.0093788038939237595,1.0816757678985596,0.43527436256408691,0.075070075690746307,0.47904315590858459,0.76771712303161621,0.55297529697418213,0.0,0.0,0.0,0.0,0.025000000000000001,0.040000000000000001,0.14000000000000001,0.29999999999999999,0.80000000000000004,1
16:49:03.780,1.1400293111801147,0.16286133229732513,-9.9537019729614258,-0.0026631611399352551,0.011451592668890953,-0.0085221156477928162,-0.0080531276762485504,0.064618892967700958,0.13816449046134949,0.0093788038939237595,1.0816757678985596,0.43527436256408691,0.075070075690746307,0.4625275731086731,0.76771712303161621,0.55930429697036743,0.0,0.0,0.0,0.0,0.025000000000000001,0.040000000000000001,0.14000000000000001,0.29999999999999999,0.80000000000000004,1
16:49:03.824,1.1400293111801147,0.16286133229732513,-9.9537019729614258,-0.0026631611399352551,0.011451592668890953,-0.0085221156477928162,-0.0080531276762485504,0.064618892967700958,0.13816449046134949,0.0093788038939237595,1.0816757678985596,0.43527436256408691,0.075070075690746307,0.4625275731086731,0.76771712303161621,0.55930429697036743,0.0,0.0,0.0,0.0,0.025000000000000001,0.040000000000000001,0.14000000000000001,0.29999999999999999,0.80000000000000004,1
16:49:03.876,1.1400293111801147,0.16286133229732513,-9.9537019729614258,-0.0026631611399352551,0.011451592668890953,-0.0085221156477928162,-0.0080531276762485504,0.064618892967700958,0.13816449046134949,0.0093788038939237595,1.0816757678985596,0.43527436256408691,0.075070075690746307,0.4625275731086731,0.76771712303161621,0.55930429697036743,0.0,0.0,0.0,0.0,0.025000000000000001,0.040000000000000001,0.14000000000000001,0.29999999999999999,0.80000000000000004,1
16:49:03.928,1.1400293111801147,0.16286133229732513,-9.9537019729614258,-0.0026631611399352551,0.011451592668890953,-0.0085221156477928162,-0.0080531276762485504,0.064618892967700958,0.13816449046134949,0.0093788038939237595,1.0816757678985596,0.43527436256408691,0.075070075690746307,0.4625275731086731,0.76771712303161621,0.55930429697036743,0.0,0.0,0.0,0.0,0.025000000000000001,0.040000000000000001,0.14000000000000001,0.29999999999999999,0.80000000000000004,1
16:49:03.971,1.1400293111801147,0.16286133229732513,-9.9537019729614258,-0.0026631611399352551,0.011451592668890953,-0.0085221156477928162,-0.0080531276762485504,0.064618892967700958,0.13816449046134949,0.0093788038939237595,1.0816757678985596,0.43527436256408691,0.075070075690746307,0.4625275731086731,0.76771712303161621,0.55930429697036743,0.0,0.0,0.0,0.0,0.025000000000000001,0.040000000000000001,0.14000000000000001,0.29999999999999999,0.80000000000000004,1
16:49:04.054,1.1400293111801147,0.16286133229732513,-9.9537019729614258,-0.0026631611399352551,0.011451592668890953,-0.0085221156477928162,-0.0080531276762485504,0.064618892967700958,0.13816449046134949,0.0093788038939237595,1.0816757678985596,0.43527436256408691,0.075070075690746307,0.4625275731086731,0.76771712303161621,0.55930429697036743,0.0,0.0,0.0,0.0,0.025000000000000001,0.040000000000000001,0.14000000000000001,0.29999999999999999,0.80000000000000004,1
16:49:04.077,0.99632817506790161,0.1245410218834877,-10.001602172851562,-0.0026631611399352551,0.022370554506778717,-0.00079894834198057652,-0.007478062529116869,0.062125984579324722,0.12560093402862549,0.0,1.1296827793121338,0.45436322689056396,0.063514299690723419,0.42724713683128357,0.80479586124420166,0.62056803703308105,0.0,0.0,0.0,0.0,0.025000000000000001,0.040000000000000001,0.14000000000000001,0.29999999999999999,0.80000000000000004,1
16:49:04.128,0.99632817506790161,0.1245410218834877,-10.001602172851562,-0.0026631611399352551,0.022370554506778717,-0.00079894834198057652,-0.007478062529116869,0.062125984579324722,0.12560093402862549,0.0,1.1296827793121338,0.45436322689056396,0.063514299690723419,0.42724713683128357,0.80479586124420166,0.62056803703308105,0.0,0.0,0.0,0.0,0.025000000000000001,0.040000000000000001,0.14000000000000001,0.29999999999999999,0.80000000000000004,1
16:49:04.172,0.99632817506790161,0.1245410218834877,-10.001602172851562,-0.0026631611399352551,0.022370554506778717,-0.00079894834198057652,-0.007478062529116869,0.062125984579324722,0.12560093402862549,0.0,1.1296827793121338,0.45436322689056396,0.063514299690723419,0.42724713683128357,0.80479586124420166,0.62056803703308105,0.0,0.0,0.0,0.0,0.025000000000000001,0.040000000000000001,0.14000000000000001,0.29999999999999999,0.80000000000000004,1
16:49:04.223,0.99632817506790161,0.1245410218834877,-10.001602172851562,-0.0026631611399352551,0.022370554506778717,-0.00079894834198057652,-0.007478062529116869,0.062125984579324722,0.12560093402862549,0.0,1.1296827793121338,0.45436322689056396,0.063514299690723419,0.42724713683128357,0.80479586124420166,0.62056803703308105,0.0,0.0,0.0,0.0,0.025000000000000001,0.040000000000000001,0.14000000000000001,0.29999999999999999,0.80000000000000004,1
16:49:04.272,0.99632817506790161,0.1245410218834877,-10.001602172851562,-0.0026631611399352551,0.022370554506778717,-0.00079894834198057652,-0.007478062529116869,0.062125984579324722,0.12560093402862549,0.0,1.1296827793121338,0.45436322689056396,0.063514299690723419,0.42724713683128357,0.80479586124420166,0.62056803703308105,0.0,0.0,0.0,0.0,0.025000000000000001,0.040000000000000001,0.14000000000000001,0.29999999999999999,0.80000000000000004,1
16:49:04.326,0.99632817506790161,0.1245410218834877,-10.001602172851562,-0.0026631611399352551,0.022370554506778717,-0.00079894834198057652,-0.007478062529116869,0.062125984579324722,0.12560093402862549,0.0,1.1296827793121338,0.45436322689056396,0.063514299690723419,0.42724713683128357,0.80479586124420166,0.62056803703308105,0.0,0.0,0.0,0.0,0.025000000000000001,0.040000000000000001,0.14000000000000001,0.29999999999999999,0.80000000000000004,1
16:49:04.405,1.0633887052536011,0.10538086295127869,-10.001602172851562,0.001597896683961153,0.0039947414770722389,0.00026631611399352551,-0.007478062529116869,0.063468284904956818,0.1227111741900444,0.0,1.1052086353302002,0.44826483726501465,0.065157495439052582,0.42724713683128357,0.79931306838989258,0.62056803703308105,0.0,0.0,0.0,0.0,0.025000000000000001,0.040000000000000001,0.14000000000000001,0.29999999999999999,0.80000000000000004,1
16:49:04.424,1.0633887052536011,0.10538086295127869,-10.001602172851562,0.001597896683961153,0.0039947414770722389,0.00026631611399352551,-0.0078614391386508942,0.063468284904956818,0.1227111741900444,0.0,1.1052086353302002,0.44826483726501465,0.065157495439052582,0.43872949481010437,0.79931306838989258,0.6186559796333313,0.0,0.0,0.0,0.0,0.025000000000000001,0.040000000000000001,0.14000000000000001,0.29999999999999999,0.80000000000000004,1
16:49:04.479,1.0633887052536011,0.10538086295127869,-10.001602172851562,0.001597896683961153,0.0039947414770722389,0.00026631611399352551,-0.0078614391386508942,0.063468284904956818,0.1227111741900444,0.0,1.1052086353302002,0.44826483726501465,0.065157495439052582,0.43872949481010437,0.79931306838989258,0.6186559796333313,0.0,0.0,0.0,0.0,0.025000000000000001,0.040000000000000001,0.14000000000000001,0.29999999999999999,0.80000000000000004,1
16:49:04.526,1.0633887052536011,0.10538086295127869,-10.001602172851562,0.001597896683961153,0.0039947414770722389,0.00026631611399352551,-0.0078614391386508942,0.063468284904956818,0.1227111741900444,0.0,1.1052086353302002,0.44826483726501465,0.065157495439052582,0.43872949481010437,0.79931306838989258,0.6186559796333313,0.0,0.0,0.0,0.0,0.025000000000000001,0.040000000000000001,0.14000000000000001,0.29999999999999999,0.80000000000000004,1
16:49:04.577,1.0633887052536011,0.10538086295127869,-10.001602172851562,0.001597896683961153,0.0039947414770722389,0.00026631611399352551,-0.0078614391386508942,0.063468284904956818,0.1227111741900444,0.0,1.1052086353302002,0.44826483726501465,0.065157495439052582,0.43872949481010437,0.79931306838989258,0.6186559796333313,0.0,0.0,0.0,0.0,0.025000000000000001,0.040000000000000001,0.14000000000000001,0.29999999999999999,0.80000000000000004,1
16:49:04.624,1.0633887052536011,0.10538086295127869,-10.001602172851562,0.001597896683961153,0.0039947414770722389,0.00026631611399352551,-0.0078614391386508942,0.063468284904956818,0.1227111741900444,0.0,1.1052086353302002,0.44826483726501465,0.065157495439052582,0.43872949481010437,0.79931306838989258,0.6186559796333313,0.0,0.0,0.0,0.0,0.025000000000000001,0.040000000000000001,0.14000000000000001,0.29999999999999999,0.80000000000000004,1
16:49:04.673,1.0633887052536011,0.10538086295127869,-10.001602172851562,0.001597896683961153,0.0039947414770722389,0.00026631611399352551,-0.0078614391386508942,0.063468284904956818,0.1227111741900444,0.0,1.1052086353302002,0.44826483726501465,0.065157495439052582,0.43872949481010437,0.79931306838989258,0.6186559796333313,0.0,0.0,0.0,0.0,0.025000000000000001,0.040000000000000001,0.14000000000000001,0.29999999999999999,0.80000000000000004,1
16:49:04.745,0.91968750953674316,0.057480469346046448,-10.001602172851562,-0.0069242189638316631,0.021571604534983635,0.0029294772539287806,-0.0078614391386508942,0.062125984579324722,0.11846271157264709,0.0,1.0480259656906128,0.43993204832077026,0.067067570984363556,0.43872949481010437,0.79389399290084839,0.6186559796333313,0.0,0.0,0.0,0.0,0.025000000000000001,0.040000000000000001,0.14000000000000001,0.29999999999999999,0.80000000000000004,1
16:49:04.776,0.91968750953674316,0.057480469346046448,-10.011181831359863,-0.0069242189638316631,0.021571604534983635,0.0029294772539287806,-0.0072863739915192127,0.062125984579324722,0.11846271157264709,0.0,1.0480259656906128,0.43993204832077026,0.067067570984363556,0.4625275731086731,0.79389399290084839,0.63825774192810059,0.0,0.0,0.0,0.0,0.025000000000000001,0.040000000000000001,0.14000000000000001,0.29999999999999999,0.80000000000000004,1
16:49:04.827,0.91968750953674316,0.057480469346046448,-10.011181831359863,-0.0069242189638316631,0.021571604534983635,0.0029294772539287806,-0.0072863739915192127,0.062125984579324722,0.11846271157264709,0.0,1.0480259656906128,0.43993204832077026,0.067067570984363556,0.4625275731086731,0.79389399290084839,0.63825774192810059,0.0,0.0,0.0,0.0,0.025000000000000001,0.040000000000000001,0.14000000000000001,0.29999999999999999,0.80000000000000004,1
16:49:04.877,0.91968750953674316,0.057480469346046448,-10.011181831359863,-0.0069242189638316631,0.021571604534983635,0.0029294772539287806,-0.0072863739915192127,0.062125984579324722,0.11846271157264709,0.0,1.0480259656906128,0.43993204832077026,0.067067570984363556,0.4625275731086731,0.79389399290084839,0.63825774192810059,0.0,0.0,0.0,0.0,0.025000000000000001,0.040000000000000001,0.14000000000000001,0.29999999999999999,0.80000000000000004,1
16:49:04.930,0.91968750953674316,0.057480469346046448,-10.011181831359863,-0.0069242189638316631,0.021571604534983635,0.0029294772539287806,-0.0072863739915192127,0.062125984579324722,0.11846271157264709,0.0,1.0480259656906128,0.43993204832077026,0.067067570984363556,0.4625275731086731,0.79389399290084839,0.63825774192810059,0.0,0.0,0.0,0.0,0.025000000000000001,0.040000000000000001,0.14000000000000001,0.29999999999999999,0.80000000000000004,1
16:49:04.976,0.91968750953674316,0.057480469346046448,-10.011181831359863,-0.0069242189638316631,0.021571604534983635,0.0029294772539287806,-0.0072863739915192127,0.062125984579324722,0.11846271157264709,0.0,1.0480259656906128,0.43993204832077026,0.067067570984363556,0.4625275731086731,0.79389399290084839,0.63825774192810059,0.0,0.0,0.0,0.0,0.025000000000000001,0.040000000000000001,0.14000000000000001,0.29999999999999999,0.80000000000000004,1
16:49:05.059,0.91968750953674316,0.057480469346046448,-10.011181831359863,-0.0069242189638316631,0.021571604534983635,0.0029294772539287806,-0.0072863739915192127,0.062125984579324722,0.11846271157264709,0.0,1.0480259656906128,0.43993204832077026,0.067067570984363556,0.4625275731086731,0.79389399290084839,0.63825774192810059,0.0,0.0,0.0,0.0,0.025000000000000001,0.040000000000000001,0.14000000000000001,0.29999999999999999,0.80000000000000004,1
16:49:05.085,0.91968750953674316,0.057480469346046448,-10.011181831359863,0.0,-0.019973708316683769,-0.0018642127979546785,-0.0072863739915192127,0.06385166198015213,0.10032593458890915,0.0,1.0627455711364746,0.4261772632598877,0.055670946836471558,0.4625275731086731,0.81878930330276489,0.63825774192810059,0.0,0.0,0.0,0.0,0.025000000000000001,0.040000000000000001,0.14000000000000001,0.29999999999999999,0.80000000000000004,1
16:49:05.127,0.99632817506790161,-0.047900393605232239,-10.001602172851562,0.0,-0.019973708316683769,-0.0018642127979546785,-0.007478062529116869,0.06385166198015213,0.10032593458890915,0.0,1.0627455711364746,0.4261772632598877,0.055670946836471558,0.39083617925643921,0.81878930330276489,0.65474569797515869,0.0,0.0,0.0,0.0,0.025000000000000001,0.040000000000000001,0.14000000000000001,0.29999999999999999,0.80000000000000004,1
16:49:05.178,0.99632817506790161,-0.047900393605232239,-10.001602172851562,0.0,-0.019973708316683769,-0.0018642127979546785,-0.007478062529116869,0.06385166198015213,0.10032593458890915,0.0,1.0627455711364746,0.4261772632598877,0.055670946836471558,0.39083617925643921,0.81878930330276489,0.65474569797515869,0.0,0.0,0.0,0.0,0.025000000000000001,0.040000000000000001,0.14000000000000001,0.29999999999999999,0.80000000000000004,1
16:49:05.229,0.99632817506790161,-0.047900393605232239,-10.001602172851562,0.0,-0.019973708316683769,-0.0018642127979546785,-0.007478062529116869,0.06385166198015213,0.10032593458890915,0.0,1.0627455711364746,0.4261772632598877,0.055670946836471558,0.39083617925643921,0.81878930330276489,0.65474569797515869,0.0,0.0,0.0,0.0,0.025000000000000001,0.040000000000000001,0.14000000000000001,0.29999999999999999,0.80000000000000004,1
16:49:05.284,0.99632817506790161,-0.047900393605232239,-10.001602172851562,0.0,-0.019973708316683769,-0.0018642127979546785,-0.007478062529116869,0.06385166198015213,0.10032593458890915,0.0,1.0627455711364746,0.4261772632598877,0.055670946836471558,0.39083617925643921,0.81878930330276489,0.65474569797515869,0.0,0.0,0.0,0.0,0.025000000000000001,0.040000000000000001,0.14000000000000001,0.29999999999999999,0.80000000000000004,1
16:49:05.327,0.99632817506790161,-0.047900393605232239,-10.001602172851562,0.0,-0.019973708316683769,-0.0018642127979546785,-0.007478062529116869,0.06385166198015213,0.10032593458890915,0.0,1.0627455711364746,0.4261772632598877,0.055670946836471558,0.39083617925643921,0.81878930330276489,0.65474569797515869,0.0,0.0,0.0,0.0,0.025000000000000001,0.040000000000000001,0.14000000000000001,0.29999999999999999,0.80000000000000004,1
16:49:05.408,0.99632817506790161,-0.047900393605232239,-10.001602172851562,0.0,-0.019973708316683769,-0.0018642127979546785,-0.007478062529116869,0.062509365379810333,0.10032593458890915,0.0,1.0627455711364746,0.45559796690940857,0.045054599642753601,0.39083617925643921,0.81878930330276489,0.65474569797515869,0.0,0.0,0.0,0.0,0.025000000000000001,0.040000000000000001,0.14000000000000001,0.29999999999999999,0.80000000000000004,1
16:49:05.431,1.0154882669448853,0.095800787210464478,-10.001602172851562,-0.008255799300968647,-0.029294772073626518,0.009321063756942749,-0.0076697510667145252,0.062509365379810333,0.09174221009016037,0.0,1.1508383750915527,0.45559796690940857,0.045054599642753601,0.35868525505065918,0.85109519958496094,0.75264620780944824,0.0,0.0,0.0,0.0,0.025000000000000001,0.040000000000000001,0.14000000000000001,0.29999999999999999,0.80000000000000004,1
16:49:05.486,1.0154882669448853,0.095800787210464478,-10.001602172851562,-0.008255799300968647,-0.029294772073626518,0.009321063756942749,-0.0076697510667145252,0.062509365379810333,0.09174221009016037,0.0,1.1508383750915527,0.45559796690940857,0.045054599642753601,0.35868525505065918,0.85109519958496094,0.75264620780944824,0.0,0.0,0.0,0.0,0.025000000000000001,0.040000000000000001,0.14000000000000001,0.29999999999999999,0.80000000000000004,1
16:49:05.529,1.0154882669448853,0.095800787210464478,-10.001602172851562,-0.008255799300968647,-0.029294772073626518,0.009321063756942749,-0.0076697510667145252,0.062509365379810333,0.09174221009016037,0.0,1.1508383750915527,0.45559796690940857,0.045054599642753601,0.35868525505065918,0.85109519958496094,0.75264620780944824,0.0,0.0,0.0,0.0,0.025000000000000001,0.040000000000000001,0.14000000000000001,0.29999999999999999,0.80000000000000004,1
16:49:05.584,1.0154882669448853,0.095800787210464478,-10.001602172851562,-0.008255799300968647,-0.029294772073626518,0.009321063756942749,-0.0076697510667145252,0.062509365379810333,0.09174221009016037,0.0,1.1508383750915527,0.45559796690940857,0.045054599642753601,0.35868525505065918,0.85109519958496094,0.75264620780944824,0.0,0.0,0.0,0.0,0.025000000000000001,0.040000000000000001,0.14000000000000001,0.29999999999999999,0.80000000000000004,1
16:49:05.629,1.0154882669448853,0.095800787210464478,-10.001602172851562,-0.008255799300968647,-0.029294772073626518,0.009321063756942749,-0.0076697510667145252,0.062509365379810333,0.09174221009016037,0.0,1.1508383750915527,0.45559796690940857,0.045054599642753601,0.35868525505065918,0.85109519958496094,0.75264620780944824,0.0,0.0,0.0,0.0,0.025000000000000001,0.040000000000000001,0.14000000000000001,0.29999999999999999,0.80000000000000004,1
16:49:05.689,1.0154882669448853,0.095800787210464478,-10.001602172851562,-0.008255799300968647,-0.029294772073626518,0.009321063756942749,-0.0076697510667145252,0.062509365379810333,0.09174221009016037,0.0,1.1508383750915527,0.45559796690940857,0.045054599642753601,0.35868525505065918,0.85109519958496094,0.75264620780944824,0.0,0.0,0.0,0.0,0.025000000000000001,0.040000000000000001,0.14000000000000001,0.29999999999999999,0.80000000000000004,1
16:49:05.755,1.1879297494888306,0.13412110507488251,-10.001602172851562,-0.001065264455974102,0.0069242189638316631,0.0018642127979546785,-0.0076697510667145252,0.063468284904956818,0.14025674760341644,0.0021516066044569016,1.0740313529968262,0.44706001877784729,0.075851522386074066,0.35868525505065918,0.78324270248413086,0.75264620780944824,0.0,0.0,0.0,0.0,0.025000000000000001,0.040000000000000001,0.14000000000000001,0.29999999999999999,0.80000000000000004,1
16:49:05.783,1.1879297494888306,0.13412110507488251,-10.001602172851562,-0.001065264455974102,0.0069242189638316631,0.0018642127979546785,-0.0084365047514438629,0.063468284904956818,0.14025674760341644,0.0021516066044569016,1.0740313529968262,0.44706001877784729,0.075851522386074066,0.50046515464782715,0.78324270248413086,0.63425028324127197,0.0,0.0,0.0,0.0,0.025000000000000001,0.040000000000000001,0.14000000000000001,0.29999999999999999,0.80000000000000004,1
16:49:05.830,1.1879297494888306,0.13412110507488251,-10.001602172851562,-0.001065264455974102,0.0069242189638316631,0.0018642127979546785,-0.0084365047514438629,0.063468284904956818,0.14025674760341644,0.0021516066044569016,1.0740313529968262,0.44706001877784729,0.075851522386074066,0.50046515464782715,0.78324270248413086,0.63425028324127197,0.0,0.0,0.0,0.0,0.025000000000000001,0.040000000000000001,0.14000000000000001,0.29999999999999999,0.80000000000000004,1
16:49:05.891,1.1879297494888306,0.13412110507488251,-10.001602172851562,-0.001065264455974102,0.0069242189638316631,0.0018642127979546785,-0.0084365047514438629,0.063468284904956818,0.14025674760341644,0.0021516066044569016,1.0740313529968262,0.44706001877784729,0.075851522386074066,0.50046515464782715,0.78324270248413086,0.63425028324127197,0.0,0.0,0.0,0.0,0.025000000000000001,0.040000000000000001,0.14000000000000001,0.29999999999999999,0.80000000000000004,1
16:49:05.931,1.1879297494888306,0.13412110507488251,-10.001602172851562,-0.001065264455974102,0.0069242189638316631,0.0018642127979546785,-0.0084365047514438629,0.063468284904956818,0.14025674760341644,0.0021516066044569016,1.0740313529968262,0.44706001877784729,0.075851522386074066,0.50046515464782715,0.78324270248413086,0.63425028324127197,0.0,0.0,0.0,0.0,0.025000000000000001,0.040000000000000001,0.14000000000000001,0.29999999999999999,0.80000000000000004,1
16:49:05.986,1.1879297494888306,0.13412110507488251,-10.001602172851562,-0.001065264455974102,0.0069242189638316631,0.0018642127979546785,-0.0084365047514438629,0.063468284904956818,0.14025674760341644,0.0021516066044569016,1.0740313529968262,0.44706001877784729,0.075851522386074066,0.50046515464782715,0.78324270248413086,0.63425028324127197,0.0,0.0,0.0,0.0,0.025000000000000001,0.040000000000000001,0.14000000000000001,0.29999999999999999,0.80000000000000004,1
16:49:06.067,1.1879297494888306,0.13412110507488251,-10.001602172851562,-0.001065264455974102,0.0069242189638316631,0.0018642127979546785,-0.0084365047514438629,0.063468284904956818,0.14025674760341644,0.0021516066044569016,1.0740313529968262,0.44706001877784729,0.075851522386074066,0.50046515464782715,0.78324270248413086,0.63425028324127197,0.0,0.0,0.0,0.0,0.025000000000000001,0.040000000000000001,0.14000000000000001,0.29999999999999999,0.80000000000000004,1
16:49:06.096,0.89094728231430054,0.067060552537441254,-10.001602172851562,0.0031957933679223061,-0.010918960906565189,-0.0026631611399352551,-0.0084365047514438629,0.0600169338285923,0.11568634212017059,0.0,1.1638795137405396,0.46184834837913513,0.055240631103515625,0.50046515464782715,0.83909684419631958,0.63425028324127197,0.0,0.0,0.0,0.0,0.025000000000000001,0.040000000000000001,0.14000000000000001,0.29999999999999999,0.80000000000000004,1
16:49:06.133,0.89094728231430054,0.067060552537441254,-10.001602172851562,0.0031957933679223061,-0.010918960906565189,-0.0026631611399352551,-0.0078614391386508942,0.0600169338285923,0.11568634212017059,0.0,1.1638795137405396,0.46184834837913513,0.055240631103515625,0.42347902059555054,0.83909684419631958,0.71890532970428467,0.0,0.0,0.0,0.0,0.025000000000000001,0.040000000000000001,0.14000000000000001,0.29999999999999999,0.80000000000000004,1
16:49:06.185,0.89094728231430054,0.067060552537441254,-10.001602172851562,0.0031957933679223061,-0.010918960906565189,-0.0026631611399352551,-0.0078614391386508942,0.0600169338285923,0.11568634212017059,0.0,1.1638795137405396,0.46184834837913513,0.055240631103515625,0.42347902059555054,0.83909684419631958,0.71890532970428467,0.0,0.0,0.0,0.0,0.025000000000000001,0.040000000000000001,0.14000000000000001,0.29999999999999999,0.80000000000000004,1
16:49:06.237,0.89094728231430054,0.067060552537441254,-10.001602172851562,0.0031957933679223061,-0.010918960906565189,-0.0026631611399352551,-0.0078614391386508942,0.0600169338285923,0.11568634212017059,0.0,1.1638795137405396,0.46184834837913513,0.055240631103515625,0.42347902059555054,0.83909684419631958,0.71890532970428467,0.0,0.0,0.0,0.0,0.025000000000000001,0.040000000000000001,0.14000000000000001,0.29999999999999999,0.80000000000000004,1
16:49:06.291,0.89094728231430054,0.067060552537441254,-10.001602172851562,0.0031957933679223061,-0.010918960906565189,-0.0026631611399352551,-0.0078614391386508942,0.0600169338285923,0.11568634212017059,0.0,1.1638795137405396,0.46184834837913513,0.055240631103515625,0.42347902059555054,0.83909684419631958,0.71890532970428467,0.0,0.0,0.0,0.0,0.025000000000000001,0.040000000000000001,0.14000000000000001,0.29999999999999999,0.80000000000000004,1
16:49:06.338,0.89094728231430054,0.067060552537441254,-10.001602172851562,0.0031957933679223061,-0.010918960906565189,-0.0026631611399352551,-0.0078614391386508942,0.0600169338285923,0.11568634212017059,0.0,1.1638795137405396,0.46184834837913513,0.055240631103515625,0.42347902059555054,0.83909684419631958,0.71890532970428467,0.0,0.0,0.0,0.0,0.025000000000000001,0.040000000000000001,0.14000000000000001,0.29999999999999999,0.80000000000000004,1
16:49:06.418,0.89094728231430054,0.067060552537441254,-10.001602172851562,0.0029294772539287806,-0.020240023732185364,-0.0026631611399352551,-0.0078614391386508942,0.059825245290994644,0.11568634212017059,0.0,1.1638795137405396,0.47474634647369385,0.043330729007720947,0.42347902059555054,0.85109519958496094,0.71890532970428467,0.0,0.0,0.0,0.0,0.025000000000000001,0.040000000000000001,0.14000000000000001,0.29999999999999999,0.80000000000000004,1
16:49:06.438,0.87178713083267212,0.067060552537441254,-10.001602172851562,0.0029294772539287806,-0.020240023732185364,-0.00053263222798705101,-0.0078614391386508942,0.059825245290994644,0.10158935189247131,0.0,1.2093538045883179,0.47474634647369385,0.043330729007720947,0.35219612717628479,0.85109519958496094,0.7446102499961853,0.0,0.0,0.0,0.0,0.025000000000000001,0.040000000000000001,0.14000000000000001,0.29999999999999999,0.80000000000000004,1
16:49:06.493,0.87178713083267212,0.067060552537441254,-10.001602172851562,0.0029294772539287806,-0.020240023732185364,-0.00053263222798705101,-0.0078614391386508942,0.059825245290994644,0.10158935189247131,0.0,1.2093538045883179,0.47474634647369385,0.043330729007720947,0.35219612717628479,0.85109519958496094,0.7446102499961853,0.0,0.0,0.0,0.0,0.025000000000000001,0.040000000000000001,0.14000000000000001,0.29999999999999999,0.80000000000000004,1
16:49:06.541,0.87178713083267212,0.067060552537441254,-10.001602172851562,0.0029294772539287806,-0.020240023732185364,-0.00053263222798705101,-0.0078614391386508942,0.059825245290994644,0.10158935189247131,0.0,1.2093538045883179,0.47474634647369385,0.043330729007720947,0.35219612717628479,0.85109519958496094,0.7446102499961853,0.0,0.0,0.0,0.0,0.025000000000000001,0.040000000000000001,0.14000000000000001,0.29999999999999999,0.80000000000000004,1
16:49:06.589,0.87178713083267212,0.067060552537441254,-10.001602172851562,0.0029294772539287806,-0.020240023732185364,-0.00053263222798705101,-0.0078614391386508942,0.059825245290994644,0.10158935189247131,0.0,1.2093538045883179,0.47474634647369385,0.043330729007720947,0.35219612717628479,0.85109519958496094,0.7446102499961853,0.0,0.0,0.0,0.0,0.025000000000000001,0.040000000000000001,0.14000000000000001,0.29999999999999999,0.80000000000000004,1
16:49:06.638,0.87178713083267212,0.067060552537441254,-10.001602172851562,0.0029294772539287806,-0.020240023732185364,-0.00053263222798705101,-0.0078614391386508942,0.059825245290994644,0.10158935189247131,0.0,1.2093538045883179,0.47474634647369385,0.043330729007720947,0.35219612717628479,0.85109519958496094,0.7446102499961853,0.0,0.0,0.0,0.0,0.025000000000000001,0.040000000000000001,0.14000000000000001,0.29999999999999999,0.80000000000000004,1
16:49:06.688,0.87178713083267212,0.067060552537441254,-10.001602172851562,0.0029294772539287806,-0.020240023732185364,-0.00053263222798705101,-0.0078614391386508942,0.059825245290994644,0.10158935189247131,0.0,1.2093538045883179,0.47474634647369385,0.043330729007720947,0.35219612717628479,0.85109519958496094,0.7446102499961853,0.0,0.0,0.0,0.0,0.025000000000000001,0.040000000000000001,0.14000000000000001,0.29999999999999999,0.80000000000000004,1
16:49:06.754,0.87178713083267212,0.10538086295127869,-10.001602172851562,0.00026631611399352551,-0.041278999298810959,0.001065264455974102,-0.0078614391386508942,0.059633079916238785,0.093745619058609009,0.0,1.2188385725021362,0.48140248656272888,0.034298475831747055,0.35219612717628479,0.86965858936309814,0.7446102499961853,0.0,0.0,0.0,0.0,0.025000000000000001,0.040000000000000001,0.14000000000000001,0.29999999999999999,0.80000000000000004,1
16:49:06.786,0.8526269793510437,0.10538086295127869,-10.011181831359863,0.00026631611399352551,-0.041278999298810959,0.001065264455974102,-0.0072863739915192127,0.059633079916238785,0.093745619058609009,0.0,1.2188385725021362,0.48140248656272888,0.034298475831747055,0.33173546195030212,0.86965858936309814,0.78349548578262329,0.0,0.0,0.0,0.0,0.025000000000000001,0.040000000000000001,0.14000000000000001,0.29999999999999999,0.80000000000000004,1
16:49:06.842,0.8526269793510437,0.10538086295127869,-10.011181831359863,0.00026631611399352551,-0.041278999298810959,0.001065264455974102,-0.0072863739915192127,0.059633079916238785,0.093745619058609009,0.0,1.2188385725021362,0.48140248656272888,0.034298475831747055,0.33173546195030212,0.86965858936309814,0.78349548578262329,0.0,0.0,0.0,0.0,0.025000000000000001,0.040000000000000001,0.14000000000000001,0.29999999999999999,0.80000000000000004,1
16:49:06.889,0.8526269793510437,0.10538086295127869,-10.011181831359863,0.00026631611399352551,-0.041278999298810959,0.001065264455974102,-0.0072863739915192127,0.059633079916238785,0.093745619058609009,0.0,1.2188385725021362,0.48140248656272888,0.034298475831747055,0.33173546195030212,0.86965858936309814,0.78349548578262329,0.0,0.0,0.0,0.0,0.025000000000000001,0.040000000000000001,0.14000000000000001,0.29999999999999999,0.80000000000000004,1
16:49:06.944,0.8526269793510437,0.10538086295127869,-10.011181831359863,0.00026631611399352551,-0.041278999298810959,0.001065264455974102,-0.0072863739915192127,0.059633079916238785,0.093745619058609009,0.0,1.2188385725021362,0.48140248656272888,0.034298475831747055,0.33173546195030212,0.86965858936309814,0.78349548578262329,0.0,0.0,0.0,0.0,0.025000000000000001,0.040000000000000001,0.14000000000000001,0.29999999999999999,0.80000000000000004,1
16:49:06.985,0.8526269793510437,0.10538086295127869,-10.011181831359863,0.00026631611399352551,-0.041278999298810959,0.001065264455974102,-0.0072863739915192127,0.059633079916238785,0.093745619058609009,0.0,1.2188385725021362,0.48140248656272888,0.034298475831747055,0.33173546195030212,0.86965858936309814,0.78349548578262329,0.0,0.0,0.0,0.0,0.025000000000000001,0.040000000000000001,0.14000000000000001,0.29999999999999999,0.80000000000000004,1
16:49:07.074,0.8526269793510437,0.10538086295127869,-10.011181831359863,0.00026631611399352551,-0.041278999298810959,0.001065264455974102,-0.0072863739915192127,0.059633079916238785,0.093745619058609009,0.0,1.2188385725021362,0.48140248656272888,0.034298475831747055,0.33173546195030212,0.86965858936309814,0.78349548578262329,0.0,0.0,0.0,0.0,0.025000000000000001,0.040000000000000001,0.14000000000000001,0.29999999999999999,0.80000000000000004,1
16:49:07.106,0.91968750953674316,0.095800787210464478,-9.9920215606689453,0.0066579030826687813,-0.021038973703980446,-0.0026631611399352551,-0.0072863739915192127,0.061550918966531754,0.11660692095756531,0.0,1.1727234125137329,0.47081989049911499,0.054385527968406677,0.33173546195030212,0.84206897020339966,0.73933827877044678,0.0,0.0,0.0,0.0,0.025000000000000001,0.040000000000000001,0.14000000000000001,0.29999999999999999,0.80000000000000004,1
16:49:07.151,0.91968750953674316,0.095800787210464478,-9.9920215606689453,0.0066579030826687813,-0.021038973703980446,-0.0026631611399352551,-0.007478062529116869,0.061550918966531754,0.11660692095756531,0.0,1.1727234125137329,0.47081989049911499,0.054385527968406677,0.4197399914264679,0.84206897020339966,0.73933827877044678,0.0,0.0,0.0,0.0,0.025000000000000001,0.040000000000000001,0.14000000000000001,0.29999999999999999,0.80000000000000004,1
16:49:07.190,0.91968750953674316,0.095800787210464478,-9.9920215606689453,0.0066579030826687813,-0.021038973703980446,-0.0026631611399352551,-0.007478062529116869,0.061550918966531754,0.11660692095756531,0.0,1.1727234125137329,0.47081989049911499,0.054385527968406677,0.4197399914264679,0.84206897020339966,0.73933827877044678,0.0,0.0,0.0,0.0,0.025000000000000001,0.040000000000000001,0.14000000000000001,0.29999999999999999,0.80000000000000004,1
16:49:07.247,0.91968750953674316,0.095800787210464478,-9.9920215606689453,0.0066579030826687813,-0.021038973703980446,-0.0026631611399352551,-0.007478062529116869,0.061550918966531754,0.11660692095756531,0.0,1.1727234125137329,0.47081989049911499,0.054385527968406677,0.4197399914264679,0.84206897020339966,0.73933827877044678,0.0,0.0,0.0,0.0,0.025000000000000001,0.040000000000000001,0.14000000000000001,0.29999999999999999,0.80000000000000004,1
16:49:07.296,0.91968750953674316,0.095800787210464478,-9.9920215606689453,0.0066579030826687813,-0.021038973703980446,-0.0026631611399352551,-0.007478062529116869,0.061550918966531754,0.11660692095756531,0.0,1.1727234125137329,0.47081989049911499,0.054385527968406677,0.4197399914264679,0.84206897020339966,0.73933827877044678,0.0,0.0,0.0,0.0,0.025000000000000001,0.040000000000000001,0.14000000000000001,0.29999999999999999,0.80000000000000004,1
16:49:07.352,0.91968750953674316,0.095800787210464478,-9.9920215606689453,0.0066579030826687813,-0.021038973703980446,-0.0026631611399352551,-0.007478062529116869,0.061550918966531754,0.11660692095756531,0.0,1.1727234125137329,0.47081989049911499,0.054385527968406677,0.4197399914264679,0.84206897020339966,0.73933827877044678,0.0,0.0,0.0,0.0,0.025000000000000001,0.040000000000000001,0.14000000000000001,0.29999999999999999,0.80000000000000004,1
16:49:07.425,0.91968750953674316,0.095800787210464478,-9.9920215606689453,0.0023968450259417295,-0.015446335077285767,-0.0026631611399352551,-0.007478062529116869,0.062317673116922379,0.11660692095756531,0.0,1.1727234125137329,0.47474634647369385,0.059405133128166199,0.4197399914264679,0.83320677280426025,0.73933827877044678,0.0,0.0,0.0,0.0,0.025000000000000001,0.040000000000000001,0.14000000000000001,0.29999999999999999,0.80000000000000004,1
16:49:07.451,1.0059082508087158,0.1149609386920929,-10.001602172851562,0.0023968450259417295,-0.015446335077285767,0.0047936900518834591,-0.0080531276762485504,0.062317673116922379,0.12366922944784164,0.0,1.1727234125137329,0.47474634647369385,0.059405133128166199,0.4348720908164978,0.83320677280426025,0.72899323701858521,0.0,0.0,0.0,0.0,0.025000000000000001,0.040000000000000001,0.14000000000000001,0.29999999999999999,0.80000000000000004,1
16:49:07.501,1.0059082508087158,0.1149609386920929,-10.001602172851562,0.0023968450259417295,-0.015446335077285767,0.0047936900518834591,-0.0080531276762485504,0.062317673116922379,0.12366922944784164,0.0,1.1727234125137329,0.47474634647369385,0.059405133128166199,0.4348720908164978,0.83320677280426025,0.72899323701858521,0.0,0.0,0.0,0.0,0.025000000000000001,0.040000000000000001,0.14000000000000001,0.29999999999999999,0.80000000000000004,1
16:49:07.552,1.0059082508087158,0.1149609386920929,-10.001602172851562,0.0023968450259417295,-0.015446335077285767,0.0047936900518834591,-0.0080531276762485504,0.062317673116922379,0.12366922944784164,0.0,1.1727234125137329,0.47474634647369385,0.059405133128166199,0.4348720908164978,0.83320677280426025,0.72899323701858521,0.0,0.0,0.0,0.0,0.025000000000000001,0.040000000000000001,0.14000000000000001,0.29999999999999999,0.80000000000000004,1
16:49:07.601,1.0059082508087158,0.1149609386920929,-10.001602172851562,0.0023968450259417295,-0.015446335077285767,0.0047936900518834591,-0.0080531276762485504,0.062317673116922379,0.12366922944784164,0.0,1.1727234125137329,0.47474634647369385,0.059405133128166199,0.4348720908164978,0.83320677280426025,0.72899323701858521,0.0,0.0,0.0,0.0,0.025000000000000001,0.040000000000000001,0.14000000000000001,0.29999999999999999,0.80000000000000004,1
16:49:07.651,1.0059082508087158,0.1149609386920929,-10.001602172851562,0.0023968450259417295,-0.015446335077285767,0.0047936900518834591,-0.0080531276762485504,0.062317673116922379,0.12366922944784164,0.0,1.1727234125137329,0.47474634647369385,0.059405133128166199,0.4348720908164978,0.83320677280426025,0.72899323701858521,0.0,0.0,0.0,0.0,0.025000000000000001,0.040000000000000001,0.14000000000000001,0.29999999999999999,0.80000000000000004,1
16:49:07.698,1.0059082508087158,0.1149609386920929,-10.001602172851562,0.0023968450259417295,-0.015446335077285767,0.0047936900518834591,-0.0080531276762485504,0.062317673116922379,0.12366922944784164,0.0,1.1727234125137329,0.47474634647369385,0.059405133128166199,0.4348720908164978,0.83320677280426025,0.72899323701858521,0.0,0.0,0.0,0.0,0.025000000000000001,0.040000000000000001,0.14000000000000001,0.29999999999999999,0.80000000000000004,1
16:49:07.759,1.0059082508087158,0.1149609386920929,-10.001602172851562,-0.001597896683961153,-0.002130528911948204,0.0023968450259417295,-0.0080531276762485504,0.060591999441385269,0.12366922944784164,0.0,1.1727234125137329,0.47872301936149597,0.056537196040153503,0.4348720908164978,0.836142897605896,0.72899323701858521,0.0,0.0,0.0,0.0,0.025000000000000001,0.040000000000000001,0.14000000000000001,0.29999999999999999,0.80000000000000004,1
16:49:07.802,0.93884772062301636,0.095800787210464478,-10.001602172851562,-0.001597896683961153,-0.002130528911948204,0.0023968450259417295,-0.0082448162138462067,0.060591999441385269,0.12706351280212402,0.0,1.1953765153884888,0.47872301936149597,0.056537196040153503,0.4197399914264679,0.836142897605896,0.72391778230667114,0.0,0.0,0.0,0.0,0.025000000000000001,0.040000000000000001,0.14000000000000001,0.29999999999999999,0.80000000000000004,1
16:49:07.856,0.93884772062301636,0.095800787210464478,-10.001602172851562,-0.001597896683961153,-0.002130528911948204,0.0023968450259417295,-0.0082448162138462067,0.060591999441385269,0.12706351280212402,0.0,1.1953765153884888,0.47872301936149597,0.056537196040153503,0.4197399914264679,0.836142897605896,0.72391778230667114,0.0,0.0,0.0,0.0,0.025000000000000001,0.040000000000000001,0.14000000000000001,0.29999999999999999,0.80000000000000004,1
16:49:07.903,0.93884772062301636,0.095800787210464478,-10.001602172851562,-0.001597896683961153,-0.002130528911948204,0.0023968450259417295,-0.0082448162138462067,0.060591999441385269,0.12706351280212402,0.0,1.1953765153884888,0.47872301936149597,0.056537196040153503,0.4197399914264679,0.836142897605896,0.72391778230667114,0.0,0.0,0.0,0.0,0.025000000000000001,0.040000000000000001,0.14000000000000001,0.29999999999999999,0.80000000000000004,1
16:49:07.958,0.93884772062301636,0.095800787210464478,-10.001602172851562,-0.001597896683961153,-0.002130528911948204,0.0023968450259417295,-0.0082448162138462067,0.060591999441385269,0.12706351280212402,0.0,1.1953765153884888,0.47872301936149597,0.056537196040153503,0.4197399914264679,0.836142897605896,0.72391778230667114,0.0,0.0,0.0,0.0,0.025000000000000001,0.040000000000000001,0.14000000000000001,0.29999999999999999,0.80000000000000004,1
16:49:08.005,0.93884772062301636,0.095800787210464478,-10.001602172851562,-0.001597896683961153,-0.002130528911948204,0.0023968450259417295,-0.0082448162138462067,0.060591999441385269,0.12706351280212402,0.0,1.1953765153884888,0.47872301936149597,0.056537196040153503,0.4197399914264679,0.836142897605896,0.72391778230667114,0.0,0.0,0.0,0.0,0.025000000000000001,0.040000000000000001,0.14000000000000001,0.29999999999999999,0.80000000000000004,1
16:49:08.090,0.93884772062301636,0.095800787210464478,-10.001602172851562,-0.001597896683961153,-0.002130528911948204,0.0023968450259417295,-0.0082448162138462067,0.060591999441385269,0.12706351280212402,0.0,1.1953765153884888,0.47872301936149597,0.056537196040153503,0.4197399914264679,0.836142897605896,0.72391778230667114,0.0,0.0,0.0,0.0,0.025000000000000001,0.040000000000000001,0.14000000000000001,0.29999999999999999,0.80000000000000004,1
16:49:08.114,0.94842779636383057,0.10538086295127869,-10.001602172851562,-0.0018642127979546785,0.013848437927663326,0.00079894834198057652,-0.0082448162138462067,0.059249702841043472,0.13002470135688782,0.0,1.1907825469970703,0.4800599217414856,0.057850748300552368,0.43104469776153564,0.83320677280426025,0.71642231941223145,0.0,0.0,0.0,0.0,0.025000000000000001,0.040000000000000001,0.14000000000000001,0.29999999999999999,0.80000000000000004,1
16:49:08.160,0.94842779636383057,0.10538086295127869,-10.001602172851562,-0.0018642127979546785,0.013848437927663326,0.00079894834198057652,-0.0084365047514438629,0.059249702841043472,0.13002470135688782,0.0,1.1907825469970703,0.4800599217414856,0.057850748300552368,0.43104469776153564,0.83320677280426025,0.71642231941223145,0.0,0.0,0.0,0.0,0.025000000000000001,0.040000000000000001,0.14000000000000001,0.29999999999999999,0.80000000000000004,1
16:49:08.211,0.94842779636383057,0.10538086295127869,-10.001602172851562,-0.0018642127979546785,0.013848437927663326,0.00079894834198057652,-0.0084365047514438629,0.059249702841043472,0.13002470135688782,0.0,1.1907825469970703,0.4800599217414856,0.057850748300552368,0.43104469776153564,0.83320677280426025,0.71642231941223145,0.0,0.0,0.0,0.0,0.025000000000000001,0.040000000000000001,0.14000000000000001,0.29999999999999999,0.80000000000000004,1
16:49:08.259,0.94842779636383057,0.10538086295127869,-10.001602172851562,-0.0018642127979546785,0.013848437927663326,0.00079894834198057652,-0.0084365047514438629,0.059249702841043472,0.13002470135688782,0.0,1.1907825469970703,0.4800599217414856,0.057850748300552368,0.43104469776153564,0.83320677280426025,0.71642231941223145,0.0,0.0,0.0,0.0,0.025000000000000001,0.040000000000000001,0.14000000000000001,0.29999999999999999,0.80000000000000004,1
16:49:08.310,0.94842779636383057,0.10538086295127869,-10.001602172851562,-0.0018642127979546785,0.013848437927663326,0.00079894834198057652,-0.0084365047514438629,0.059249702841043472,0.13002470135688782,0.0,1.1907825469970703,0.4800599217414856,0.057850748300552368,0.43104469776153564,0.83320677280426025,0.71642231941223145,0.0,0.0,0.0,0.0,0.025000000000000001,0.040000000000000001,0.14000000000000001,0.29999999999999999,0.80000000000000004,1
16:49:08.360,0.94842779636383057,0.10538086295127869,-10.001602172851562,-0.0018642127979546785,0.013848437927663326,0.00079894834198057652,-0.0084365047514438629,0.059249702841043472,0.13002470135688782,0.0,1.1907825469970703,0.4800599217414856,0.057850748300552368,0.43104469776153564,0.83320677280426025,0.71642231941223145,0.0,0.0,0.0,0.0,0.025000000000000001,0.040000000000000001,0.14000000000000001,0.29999999999999999,0.80000000000000004,1
16:49:08.441,0.93884772062301636,0.10538086295127869,-10.001602172851562,-0.001065264455974102,0.0066579030826687813,-0.0031957933679223061,-0.0084365047514438629,0.059441391378641129,0.12853804230690002,0.0,1.2140792608261108,0.48275086283683777,0.055240631103515625,0.43104469776153564,0.83909684419631958,0.71642231941223145,0.0,0.0,0.0,0.0,0.025000000000000001,0.040000000000000001,0.14000000000000001,0.29999999999999999,0.80000000000000004,1
16:49:08.458,0.93884772062301636,0.10538086295127869,-10.001602172851562,-0.001065264455974102,0.0066579030826687813,-0.0031957933679223061,-0.0090120472013950348,0.059441391378641129,0.12853804230690002,0.0,1.2140792608261108,0.48275086283683777,0.055240631103515625,0.41788133978843689,0.83909684419631958,0.72644752264022827,0.0,0.0,0.0,0.0,0.025000000000000001,0.040000000000000001,0.14000000000000001,0.29999999999999999,0.80000000000000004,1
16:49:08.514,0.93884772062301636,0.10538086295127869,-10.001602172851562,-0.001065264455974102,0.0066579030826687813,-0.0031957933679223061,-0.0090120472013950348,0.059441391378641129,0.12853804230690002,0.0,1.2140792608261108,0.48275086283683777,0.055240631103515625,0.41788133978843689,0.83909684419631958,0.72644752264022827,0.0,0.0,0.0,0.0,0.025000000000000001,0.040000000000000001,0.14000000000000001,0.29999999999999999,0.80000000000000004,1
16:49:08.559,0.93884772062301636,0.10538086295127869,-10.001602172851562,-0.001065264455974102,0.0066579030826687813,-0.0031957933679223061,-0.0090120472013950348,0.059441391378641129,0.12853804230690002,0.0,1.2140792608261108,0.48275086283683777,0.055240631103515625,0.41788133978843689,0.83909684419631958,0.72644752264022827,0.0,0.0,0.0,0.0,0.025000000000000001,0.040000000000000001,0.14000000000000001,0.29999999999999999,0.80000000000000004,1
16:49:08.615,0.93884772062301636,0.10538086295127869,-10.001602172851562,-0.001065264455974102,0.0066579030826687813,-0.0031957933679223061,-0.0090120472013950348,0.059441391378641129,0.12853804230690002,0.0,1.2140792608261108,0.48275086283683777,0.055240631103515625,0.41788133978843689,0.83909684419631958,0.72644752264022827,0.0,0.0,0.0,0.0,0.025000000000000001,0.040000000000000001,0.14000000000000001,0.29999999999999999,0.80000000000000004,1
16:49:08.657,0.93884772062301636,0.10538086295127869,-10.001602172851562,-0.001065264455974102,0.0066579030826687813,-0.0031957933679223061,-0.0090120472013950348,0.059441391378641129,0.12853804230690002,0.0,1.2140792608261108,0.48275086283683777,0.055240631103515625,0.41788133978843689,0.83909684419631958,0.72644752264022827,0.0,0.0,0.0,0.0,0.025000000000000001,0.040000000000000001,0.14000000000000001,0.29999999999999999,0.80000000000000004,1
16:49:08.710,0.93884772062301636,0.10538086295127869,-10.001602172851562,-0.001065264455974102,0.0066579030826687813,-0.0031957933679223061,-0.0090120472013950348,0.059441391378641129,0.12853804230690002,0.0,1.2140792608261108,0.48275086283683777,0.055240631103515625,0.41788133978843689,0.83909684419631958,0.72644752264022827,0.0,0.0,0.0,0.0,0.025000000000000001,0.040000000000000001,0.14000000000000001,0.29999999999999999,0.80000000000000004,1
16:49:08.772,0.93884772062301636,0.10538086295127869,-10.001602172851562,-0.00026631611399352551,0.007190534844994545,-0.0031957933679223061,-0.0090120472013950348,0.059633079916238785,0.12853804230690002,0.0,1.2140792608261108,0.48546501994132996,0.056754939258098602,0.41788133978843689,0.83320677280426025,0.72644752264022827,0.0,0.0,0.0,0.0,0.025000000000000001,0.040000000000000001,0.14000000000000001,0.29999999999999999,0.80000000000000004,1
16:49:08.814,0.96758794784545898,0.1245410218834877,-10.011181831359863,-0.00026631611399352551,0.007190534844994545,-0.00079894834198057652,-0.0086286701261997223,0.059633079916238785,0.13102260231971741,0.0,1.2093538045883179,0.48546501994132996,0.056754939258098602,0.42724713683128357,0.83320677280426025,0.71890532970428467,0.0,0.0,0.0,0.0,0.025000000000000001,0.040000000000000001,0.14000000000000001,0.29999999999999999,0.80000000000000004,1
16:49:08.861,0.96758794784545898,0.1245410218834877,-10.011181831359863,-0.00026631611399352551,0.007190534844994545,-0.00079894834198057652,-0.0086286701261997223,0.059633079916238785,0.13102260231971741,0.0,1.2093538045883179,0.48546501994132996,0.056754939258098602,0.42724713683128357,0.83320677280426025,0.71890532970428467,0.0,0.0,0.0,0.0,0.025000000000000001,0.040000000000000001,0.14000000000000001,0.29999999999999999,0.80000000000000004,1
16:49:08.913,0.96758794784545898,0.1245410218834877,-10.011181831359863,-0.00026631611399352551,0.007190534844994545,-0.00079894834198057652,-0.0086286701261997223,0.059633079916238785,0.13102260231971741,0.0,1.2093538045883179,0.48546501994132996,0.056754939258098602,0.42724713683128357,0.83320677280426025,0.71890532970428467,0.0,0.0,0.0,0.0,0.025000000000000001,0.040000000000000001,0.14000000000000001,0.29999999999999999,0.80000000000000004,1
16:49:08.961,0.96758794784545898,0.1245410218834877,-10.011181831359863,-0.00026631611399352551,0.007190534844994545,-0.00079894834198057652,-0.0086286701261997223,0.059633079916238785,0.13102260231971741,0.0,1.2093538045883179,0.48546501994132996,0.056754939258098602,0.42724713683128357,0.83320677280426025,0.71890532970428467,0.0,0.0,0.0,0.0,0.025000000000000001,0.040000000000000001,0.14000000000000001,0.29999999999999999,0.80000000000000004,1
16:49:09.013,0.96758794784545898,0.1245410218834877,-10.011181831359863,-0.00026631611399352551,0.007190534844994545,-0.00079894834198057652,-0.0086286701261997223,0.059633079916238785,0.13102260231971741,0.0,1.2093538045883179,0.48546501994132996,0.056754939258098602,0.42724713683128357,0.83320677280426025,0.71890532970428467,0.0,0.0,0.0,0.0,0.025000000000000001,0.040000000000000001,0.14000000000000001,0.29999999999999999,0.80000000000000004,1
16:49:09.096,0.96758794784545898,0.1245410218834877,-10.011181831359863,-0.00026631611399352551,0.007190534844994545,-0.00079894834198057652,-0.0086286701261997223,0.059633079916238785,0.13102260231971741,0.0,1.2093538045883179,0.48546501994132996,0.056754939258098602,0.42724713683128357,0.83320677280426025,0.71890532970428467,0.0,0.0,0.0,0.0,0.025000000000000001,0.040000000000000001,0.14000000000000001,0.29999999999999999,0.80000000000000004,1
16:49:09.124,0.99632817506790161,0.10538086295127869,-10.001602172851562,0.00026631611399352551,0.001065264455974102,0.0013315805699676275,-0.0082448162138462067,0.0600169338285923,0.12608714401721954,0.0,1.2093538045883179,0.48410505056381226,0.056973133236169815,0.42914220690727234,0.83909684419631958,0.73155504465103149,0.0,0.0,0.0,0.0,0.025000000000000001,0.040000000000000001,0.14000000000000001,0.29999999999999999,0.80000000000000004,1
16:49:09.162,0.99632817506790161,0.10538086295127869,-10.001602172851562,0.00026631611399352551,0.001065264455974102,0.0013315805699676275,-0.0082448162138462067,0.0600169338285923,0.12608714401721954,0.0,1.2093538045883179,0.48410505056381226,0.056973133236169815,0.42914220690727234,0.83909684419631958,0.73155504465103149,0.0,0.0,0.0,0.0,0.025000000000000001,0.040000000000000001,0.14000000000000001,0.29999999999999999,0.80000000000000004,1
16:49:09.214,0.99632817506790161,0.10538086295127869,-10.001602172851562,0.00026631611399352551,0.001065264455974102,0.0013315805699676275,-0.0082448162138462067,0.0600169338285923,0.12608714401721954,0.0,1.2093538045883179,0.48410505056381226,0.056973133236169815,0.42914220690727234,0.83909684419631958,0.73155504465103149,0.0,0.0,0.0,0.0,0.025000000000000001,0.040000000000000001,0.14000000000000001,0.29999999999999999,0.80000000000000004,1
16:49:09.264,0.99632817506790161,0.10538086295127869,-10.001602172851562,0.00026631611399352551,0.001065264455974102,0.0013315805699676275,-0.0082448162138462067,0.0600169338285923,0.12608714401721954,0.0,1.2093538045883179,0.48410505056381226,0.056973133236169815,0.42914220690727234,0.83909684419631958,0.73155504465103149,0.0,0.0,0.0,0.0,0.025000000000000001,0.040000000000000001,0.14000000000000001,0.29999999999999999,0.80000000000000004,1
16:49:09.318,0.99632817506790161,0.10538086295127869,-10.001602172851562,0.00026631611399352551,0.001065264455974102,0.0013315805699676275,-0.0082448162138462067,0.0600169338285923,0.12608714401721954,0.0,1.2093538045883179,0.48410505056381226,0.056973133236169815,0.42914220690727234,0.83909684419631958,0.73155504465103149,0.0,0.0,0.0,0.0,0.025000000000000001,0.040000000000000001,0.14000000000000001,0.29999999999999999,0.80000000000000004,1
16:49:09.372,0.99632817506790161,0.10538086295127869,-10.001602172851562,0.00026631611399352551,0.001065264455974102,0.0013315805699676275,-0.0082448162138462067,0.0600169338285923,0.12608714401721954,0.0,1.2093538045883179,0.48410505056381226,0.056973133236169815,0.42914220690727234,0.83909684419631958,0.73155504465103149,0.0,0.0,0.0,0.0,0.025000000000000001,0.040000000000000001,0.14000000000000001,0.29999999999999999,0.80000000000000004,1
16:49:09.446,0.99632817506790161,0.10538086295127869,-10.001602172851562,0.001597896683961153,-0.0013315805699676275,-0.00053263222798705101,-0.0082448162138462067,0.059441391378641129,0.12608714401721954,0.0,1.2093538045883179,0.48410505056381226,0.060530152171850204,0.42914220690727234,0.83909684419631958,0.73155504465103149,0.0,0.0,0.0,0.0,0.025000000000000001,0.040000000000000001,0.14000000000000001,0.29999999999999999,0.80000000000000004,1
16:49:09.470,0.93884772062301636,0.086220704019069672,-9.9728612899780273,0.001597896683961153,-0.0013315805699676275,-0.00053263222798705101,-0.0082448162138462067,0.059441391378641129,0.13102260231971741,0.0,1.2093538045883179,0.48410505056381226,0.060530152171850204,0.43104469776153564,0.83909684419631958,0.72391778230667114,0.0,0.0,0.0,0.0,0.025000000000000001,0.040000000000000001,0.14000000000000001,0.29999999999999999,0.80000000000000004,1
16:49:09.523,0.93884772062301636,0.086220704019069672,-9.9728612899780273,0.001597896683961153,-0.0013315805699676275,-0.00053263222798705101,-0.0082448162138462067,0.059441391378641129,0.13102260231971741,0.0,1.2093538045883179,0.48410505056381226,0.060530152171850204,0.43104469776153564,0.83909684419631958,0.72391778230667114,0.0,0.0,0.0,0.0,0.025000000000000001,0.040000000000000001,0.14000000000000001,0.29999999999999999,0.80000000000000004,1
16:49:09.573,0.93884772062301636,0.086220704019069672,-9.9728612899780273,0.001597896683961153,-0.0013315805699676275,-0.00053263222798705101,-0.0082448162138462067,0.059441391378641129,0.13102260231971741,0.0,1.2093538045883179,0.48410505056381226,0.060530152171850204,0.43104469776153564,0.83909684419631958,0.72391778230667114,0.0,0.0,0.0,0.0,0.025000000000000001,0.040000000000000001,0.14000000000000001,0.29999999999999999,0.80000000000000004,1
16:49:09.618,0.93884772062301636,0.086220704019069672,-9.9728612899780273,0.001597896683961153,-0.0013315805699676275,-0.00053263222798705101,-0.0082448162138462067,0.059441391378641129,0.13102260231971741,0.0,1.2093538045883179,0.48410505056381226,0.060530152171850204,0.43104469776153564,0.83909684419631958,0.72391778230667114,0.0,0.0,0.0,0.0,0.025000000000000001,0.040000000000000001,0.14000000000000001,0.29999999999999999,0.80000000000000004,1
16:49:09.668,0.93884772062301636,0.086220704019069672,-9.9728612899780273,0.001597896683961153,-0.0013315805699676275,-0.00053263222798705101,-0.0082448162138462067,0.059441391378641129,0.13102260231971741,0.0,1.2093538045883179,0.48410505056381226,0.060530152171850204,0.43104469776153564,0.83909684419631958,0.72391778230667114,0.0,0.0,0.0,0.0,0.025000000000000001,0.040000000000000001,0.14000000000000001,0.29999999999999999,0.80000000000000004,1
16:49:09.720,0.93884772062301636,0.086220704019069672,-9.9728612899780273,0.001597896683961153,-0.0013315805699676275,-0.00053263222798705101,-0.0082448162138462067,0.059441391378641129,0.13102260231971741,0.0,1.2093538045883179,0.48410505056381226,0.060530152171850204,0.43104469776153564,0.83909684419631958,0.72391778230667114,0.0,0.0,0.0,0.0,0.025000000000000001,0.040000000000000001,0.14000000000000001,0.29999999999999999,0.80000000000000004,1
16:49:09.782,0.93884772062301636,0.086220704019069672,-9.9728612899780273,0.0042610578238964081,-0.0053263222798705101,0.00026631611399352551,-0.0082448162138462067,0.059633079916238785,0.13102260231971741,0.0,1.2093538045883179,0.48410505056381226,0.056537196040153503,0.43104469776153564,0.84206897020339966,0.72391778230667114,0.0,0.0,0.0,0.0,0.025000000000000001,0.040000000000000001,0.14000000000000001,0.29999999999999999,0.80000000000000004,1
16:49:09.820,0.91968750953674316,0.095800787210464478,-10.001602172851562,0.0042610578238964081,-0.0053263222798705101,0.00026631611399352551,-0.0080531276762485504,0.059633079916238785,0.12903222441673279,0.0,1.2236318588256836,0.48410505056381226,0.056537196040153503,0.42724713683128357,0.84206897020339966,0.72391778230667114,0.0,0.0,0.0,0.0,0.025000000000000001,0.040000000000000001,0.14000000000000001,0.29999999999999999,0.80000000000000004,1
16:49:09.870,0.91968750953674316,0.095800787210464478,-10.001602172851562,0.0042610578238964081,-0.0053263222798705101,0.00026631611399352551,-0.0080531276762485504,0.059633079916238785,0.12903222441673279,0.0,1.2236318588256836,0.48410505056381226,0.056537196040153503,0.42724713683128357,0.84206897020339966,0.72391778230667114,0.0,0.0,0.0,0.0,0.025000000000000001,0.040000000000000001,0.14000000000000001,0.29999999999999999,0.80000000000000004,1
16:49:09.923,0.91968750953674316,0.095800787210464478,-10.001602172851562,0.0042610578238964081,-0.0053263222798705101,0.00026631611399352551,-0.0080531276762485504,0.059633079916238785,0.12903222441673279,0.0,1.2236318588256836,0.48410505056381226,0.056537196040153503,0.42724713683128357,0.84206897020339966,0.72391778230667114,0.0,0.0,0.0,0.0,0.025000000000000001,0.040000000000000001,0.14000000000000001,0.29999999999999999,0.80000000000000004,1
16:49:09.972,0.91968750953674316,0.095800787210464478,-10.001602172851562,0.0042610578238964081,-0.0053263222798705101,0.00026631611399352551,-0.0080531276762485504,0.059633079916238785,0.12903222441673279,0.0,1.2236318588256836,0.48410505056381226,0.056537196040153503,0.42724713683128357,0.84206897020339966,0.72391778230667114,0.0,0.0,0.0,0.0,0.025000000000000001,0.040000000000000001,0.14000000000000001,0.29999999999999999,0.80000000000000004,1
16:49:10.019,0.91968750953674316,0.095800787210464478,-10.001602172851562,0.0042610578238964081,-0.0053263222798705101,0.00026631611399352551,-0.0080531276762485504,0.059633079916238785,0.12903222441673279,0.0,1.2236318588256836,0.48410505056381226,0.056537196040153503,0.42724713683128357,0.84206897020339966,0.72391778230667114,0.0,0.0,0.0,0.0,0.025000000000000001,0.040000000000000001,0.14000000000000001,0.29999999999999999,0.80000000000000004,1
16:49:10.117,0.91968750953674316,0.095800787210464478,-10.001602172851562,0.0042610578238964081,-0.0053263222798705101,0.00026631611399352551,-0.0080531276762485504,0.059825245290994644,0.12903222441673279,0.0,1.2236318588256836,0.48410505056381226,0.056537196040153503,0.42724713683128357,0.84206897020339966,0.72391778230667114,0.0,0.0,0.0,0.0,0.025000000000000001,0.040000000000000001,0.14000000000000001,0.29999999999999999,0.80000000000000004,1
16:49:10.139,0.96758794784545898,0.10538086295127869,-10.001602172851562,0.001065264455974102,-0.0042610578238964081,0.00079894834198057652,-0.0082448162138462067,0.059825245290994644,0.12853804230690002,0.0,1.2188385725021362,0.48546501994132996,0.057850748300552368,0.4197399914264679,0.83909684419631958,0.72140371799468994,0.0,0.0,0.0,0.0,0.025000000000000001,0.040000000000000001,0.14000000000000001,0.29999999999999999,0.80000000000000004,1
16:49:10.190,0.96758794784545898,0.10538086295127869,-10.001602172851562,0.001065264455974102,-0.0042610578238964081,0.00079894834198057652,-0.0082448162138462067,0.059825245290994644,0.12853804230690002,0.0,1.2188385725021362,0.48546501994132996,0.057850748300552368,0.4197399914264679,0.83909684419631958,0.72140371799468994,0.0,0.0,0.0,0.0,0.025000000000000001,0.040000000000000001,0.14000000000000001,0.29999999999999999,0.80000000000000004,1
16:49:10.241,0.96758794784545898,0.10538086295127869,-10.001602172851562,0.001065264455974102,-0.0042610578238964081,0.00079894834198057652,-0.0082448162138462067,0.059825245290994644,0.12853804230690002,0.0,1.2188385725021362,0.48546501994132996,0.057850748300552368,0.4197399914264679,0.83909684419631958,0.72140371799468994,0.0,0.0,0.0,0.0,0.025000000000000001,0.040000000000000001,0.14000000000000001,0.29999999999999999,0.80000000000000004,1
16:49:10.285,0.96758794784545898,0.10538086295127869,-10.001602172851562,0.001065264455974102,-0.0042610578238964081,0.00079894834198057652,-0.0082448162138462067,0.059825245290994644,0.12853804230690002,0.0,1.2188385725021362,0.48546501994132996,0.057850748300552368,0.4197399914264679,0.83909684419631958,0.72140371799468994,0.0,0.0,0.0,0.0,0.025000000000000001,0.040000000000000001,0.14000000000000001,0.29999999999999999,0.80000000000000004,1
16:49:10.338,0.96758794784545898,0.10538086295127869,-10.001602172851562,0.001065264455974102,-0.0042610578238964081,0.00079894834198057652,-0.0082448162138462067,0.059825245290994644,0.12853804230690002,0.0,1.2188385725021362,0.48546501994132996,0.057850748300552368,0.4197399914264679,0.83909684419631958,0.72140371799468994,0.0,0.0,0.0,0.0,0.025000000000000001,0.040000000000000001,0.14000000000000001,0.29999999999999999,0.80000000000000004,1
16:49:10.388,0.96758794784545898,0.10538086295127869,-10.001602172851562,0.001065264455974102,-0.0042610578238964081,0.00079894834198057652,-0.0082448162138462067,0.059825245290994644,0.12853804230690002,0.0,1.2188385725021362,0.48546501994132996,0.057850748300552368,0.4197399914264679,0.83909684419631958,0.72140371799468994,0.0,0.0,0.0,0.0,0.025000000000000001,0.040000000000000001,0.14000000000000001,0.29999999999999999,0.80000000000000004,1
16:49:10.458,0.96758794784545898,0.10538086295127869,-10.001602172851562,-0.002130528911948204,0.00079894834198057652,0.0031957933679223061,-0.0082448162138462067,0.0600169338285923,0.12853804230690002,0.0,1.2188385725021362,0.48410505056381226,0.05545555055141449,0.4197399914264679,0.83909684419631958,0.72140371799468994,0.0,0.0,0.0,0.0,0.025000000000000001,0.040000000000000001,0.14000000000000001,0.29999999999999999,0.80000000000000004,1
16:49:10.484,1.0059082508087158,0.1149609386920929,-10.011181831359863,-0.002130528911948204,0.00079894834198057652,0.0031957933679223061,-0.0078614391386508942,0.0600169338285923,0.12657466530799866,0.0,1.2284597158432007,0.48410505056381226,0.05545555055141449,0.4141852855682373,0.83909684419631958,0.72391778230667114,0.0,0.0,0.0,0.0,0.025000000000000001,0.040000000000000001,0.14000000000000001,0.29999999999999999,0.80000000000000004,1
16:49:10.536,1.0059082508087158,0.1149609386920929,-10.011181831359863,-0.002130528911948204,0.00079894834198057652,0.0031957933679223061,-0.0078614391386508942,0.0600169338285923,0.12657466530799866,0.0,1.2284597158432007,0.48410505056381226,0.05545555055141449,0.4141852855682373,0.83909684419631958,0.72391778230667114,0.0,0.0,0.0,0.0,0.025000000000000001,0.040000000000000001,0.14000000000000001,0.29999999999999999,0.80000000000000004,1
16:49:10.591,1.0059082508087158,0.1149609386920929,-10.011181831359863,-0.002130528911948204,0.00079894834198057652,0.0031957933679223061,-0.0078614391386508942,0.0600169338285923,0.12657466530799866,0.0,1.2284597158432007,0.48410505056381226,0.05545555055141449,0.4141852855682373,0.83909684419631958,0.72391778230667114,0.0,0.0,0.0,0.0,0.025000000000000001,0.040000000000000001,0.14000000000000001,0.29999999999999999,0.80000000000000004,1
16:49:10.643,1.0059082508087158,0.1149609386920929,-10.011181831359863,-0.002130528911948204,0.00079894834198057652,0.0031957933679223061,-0.0078614391386508942,0.0600169338285923,0.12657466530799866,0.0,1.2284597158432007,0.48410505056381226,0.05545555055141449,0.4141852855682373,0.83909684419631958,0.72391778230667114,0.0,0.0,0.0,0.0,0.025000000000000001,0.040000000000000001,0.14000000000000001,0.29999999999999999,0.80000000000000004,1
16:49:10.688,1.0059082508087158,0.1149609386920929,-10.011181831359863,-0.002130528911948204,0.00079894834198057652,0.0031957933679223061,-0.0078614391386508942,0.0600169338285923,0.12657466530799866,0.0,1.2284597158432007,0.48410505056381226,0.05545555055141449,0.4141852855682373,0.83909684419631958,0.72391778230667114,0.0,0.0,0.0,0.0,0.025000000000000001,0.040000000000000001,0.14000000000000001,0.29999999999999999,0.80000000000000004,1
16:49:10.747,1.0059082508087158,0.1149609386920929,-10.011181831359863,-0.002130528911948204,0.00079894834198057652,0.0031957933679223061,-0.0078614391386508942,0.0600169338285923,0.12657466530799866,0.0,1.2284597158432007,0.48410505056381226,0.05545555055141449,0.4141852855682373,0.83909684419631958,0.72391778230667114,0.0,0.0,0.0,0.0,0.025000000000000001,0.040000000000000001,0.14000000000000001,0.29999999999999999,0.80000000000000004,1
16:49:10.793,1.0059082508087158,0.14370118081569672,-10.011181831359863,0.0,-0.0031957933679223061,-0.00026631611399352551,-0.0078614391386508942,0.059441391378641129,0.12560093402862549,0.0,1.2333222627639771,0.48820272088050842,0.054385527968406677,0.4141852855682373,0.84505921602249146,0.72391778230667114,0.0,0.0,0.0,0.0,0.025000000000000001,0.040000000000000001,0.14000000000000001,0.29999999999999999,0.80000000000000004,1
16:49:10.838,0.96758794784545898,0.14370118081569672,-10.001602172851562,0.0,-0.0031957933679223061,-0.00026631611399352551,-0.0086286701261997223,0.059441391378641129,0.12560093402862549,0.0,1.2333222627639771,0.48820272088050842,0.054385527968406677,0.40869423747062683,0.84505921602249146,0.73933827877044678,0.0,0.0,0.0,0.0,0.025000000000000001,0.040000000000000001,0.14000000000000001,0.29999999999999999,0.80000000000000004,1
16:49:10.889,0.96758794784545898,0.14370118081569672,-10.001602172851562,0.0,-0.0031957933679223061,-0.00026631611399352551,-0.0086286701261997223,0.059441391378641129,0.12560093402862549,0.0,1.2333222627639771,0.48820272088050842,0.054385527968406677,0.40869423747062683,0.84505921602249146,0.73933827877044678,0.0,0.0,0.0,0.0,0.025000000000000001,0.040000000000000001,0.14000000000000001,0.29999999999999999,0.80000000000000004,1
16:49:10.939,0.96758794784545898,0.14370118081569672,-10.001602172851562,0.0,-0.0031957933679223061,-0.00026631611399352551,-0.0086286701261997223,0.059441391378641129,0.12560093402862549,0.0,1.2333222627639771,0.48820272088050842,0.054385527968406677,0.40869423747062683,0.84505921602249146,0.73933827877044678,0.0,0.0,0.0,0.0,0.025000000000000001,0.040000000000000001,0.14000000000000001,0.29999999999999999,0.80000000000000004,1
16:49:10.990,0.96758794784545898,0.14370118081569672,-10.001602172851562,0.0,-0.0031957933679223061,-0.00026631611399352551,-0.0086286701261997223,0.059441391378641129,0.12560093402862549,0.0,1.2333222627639771,0.48820272088050842,0.054385527968406677,0.40869423747062683,0.84505921602249146,0.73933827877044678,0.0,0.0,0.0,0.0,0.025000000000000001,0.040000000000000001,0.14000000000000001,0.29999999999999999,0.80000000000000004,1
16:49:11.039,0.96758794784545898,0.14370118081569672,-10.001602172851562,0.0,-0.0031957933679223061,-0.00026631611399352551,-0.0086286701261997223,0.059441391378641129,0.12560093402862549,0.0,1.2333222627639771,0.48820272088050842,0.054385527968406677,0.40869423747062683,0.84505921602249146,0.73933827877044678,0.0,0.0,0.0,0.0,0.025000000000000001,0.040000000000000001,0.14000000000000001,0.29999999999999999,0.80000000000000004,1
16:49:11.134,0.96758794784545898,0.14370118081569672,-10.001602172851562,0.001597896683961153,-0.00026631611399352551,-0.00053263222798705101,-0.0086286701261997223,0.059058014303445816,0.12560093402862549,0.0,1.2481232881546021,0.48820272088050842,0.05186370387673378,0.40869423747062683,0.85109519958496094,0.73933827877044678,0.0,0.0,0.0,0.0,0.025000000000000001,0.040000000000000001,0.14000000000000001,0.29999999999999999,0.80000000000000004,1
16:49:11.151,0.97716802358627319,0.067060552537441254,-10.001602172851562,0.001597896683961153,-0.00026631611399352551,-0.00053263222798705101,-0.0082448162138462067,0.059058014303445816,0.11846271157264709,0.0,1.2481232881546021,0.48820272088050842,0.05186370387673378,0.39968082308769226,0.85109519958496094,0.75264620780944824,0.0,0.0,0.0,0.0,0.025000000000000001,0.040000000000000001,0.14000000000000001,0.29999999999999999,0.80000000000000004,1
16:49:11.205,0.97716802358627319,0.067060552537441254,-10.001602172851562,0.001597896683961153,-0.00026631611399352551,-0.00053263222798705101,-0.0082448162138462067,0.059058014303445816,0.11846271157264709,0.0,1.2481232881546021,0.48820272088050842,0.05186370387673378,0.39968082308769226,0.85109519958496094,0.75264620780944824,0.0,0.0,0.0,0.0,0.025000000000000001,0.040000000000000001,0.14000000000000001,0.29999999999999999,0.80000000000000004,1
16:49:11.251,0.97716802358627319,0.067060552537441254,-10.001602172851562,0.001597896683961153,-0.00026631611399352551,-0.00053263222798705101,-0.0082448162138462067,0.059058014303445816,0.11846271157264709,0.0,1.2481232881546021,0.48820272088050842,0.05186370387673378,0.39968082308769226,0.85109519958496094,0.75264620780944824,0.0,0.0,0.0,0.0,0.025000000000000001,0.040000000000000001,0.14000000000000001,0.29999999999999999,0.80000000000000004,1
16:49:11.303,0.97716802358627319,0.067060552537441254,-10.001602172851562,0.001597896683961153,-0.00026631611399352551,-0.00053263222798705101,-0.0082448162138462067,0.059058014303445816,0.11846271157264709,0.0,1.2481232881546021,0.48820272088050842,0.05186370387673378,0.39968082308769226,0.85109519958496094,0.75264620780944824,0.0,0.0,0.0,0.0,0.025000000000000001,0.040000000000000001,0.14000000000000001,0.29999999999999999,0.80000000000000004,1
16:49:11.352,0.97716802358627319,0.067060552537441254,-10.001602172851562,0.001597896683961153,-0.00026631611399352551,-0.00053263222798705101,-0.0082448162138462067,0.059058014303445816,0.11846271157264709,0.0,1.2481232881546021,0.48820272088050842,0.05186370387673378,0.39968082308769226,0.85109519958496094,0.75264620780944824,0.0,0.0,0.0,0.0,0.025000000000000001,0.040000000000000001,0.14000000000000001,0.29999999999999999,0.80000000000000004,1
16:49:11.406,0.97716802358627319,0.067060552537441254,-10.001602172851562,0.001597896683961153,-0.00026631611399352551,-0.00053263222798705101,-0.0082448162138462067,0.059058014303445816,0.11846271157264709,0.0,1.2481232881546021,0.48820272088050842,0.05186370387673378,0.39968082308769226,0.85109519958496094,0.75264620780944824,0.0,0.0,0.0,0.0,0.025000000000000001,0.040000000000000001,0.14000000000000001,0.29999999999999999,0.80000000000000004,1
16:49:11.469,0.92926764488220215,0.10538086295127869,-10.030342102050781,0.001597896683961153,0.001065264455974102,-0.001065264455974102,-0.0082448162138462067,0.057715717703104019,0.1208103746175766,0.0,1.2581719160079956,0.49374979734420776,0.050626672804355621,0.39968082308769226,0.85720616579055786,0.75264620780944824,0.0,0.0,0.0,0.0,0.025000000000000001,0.040000000000000001,0.14000000000000001,0.29999999999999999,0.80000000000000004,1
16:49:11.504,0.92926764488220215,0.10538086295127869,-10.030342102050781,0.001597896683961153,0.001065264455974102,-0.001065264455974102,-0.0080531276762485504,0.057715717703104019,0.1208103746175766,0.0,1.2581719160079956,0.49374979734420776,0.050626672804355621,0.39435410499572754,0.85720616579055786,0.75535959005355835,0.0,0.0,0.0,0.0,0.025000000000000001,0.040000000000000001,0.14000000000000001,0.29999999999999999,0.80000000000000004,1
16:49:11.553,0.92926764488220215,0.10538086295127869,-10.030342102050781,0.001597896683961153,0.001065264455974102,-0.001065264455974102,-0.0080531276762485504,0.057715717703104019,0.1208103746175766,0.0,1.2581719160079956,0.49374979734420776,0.050626672804355621,0.39435410499572754,0.85720616579055786,0.75535959005355835,0.0,0.0,0.0,0.0,0.025000000000000001,0.040000000000000001,0.14000000000000001,0.29999999999999999,0.80000000000000004,1
16:49:11.606,0.92926764488220215,0.10538086295127869,-10.030342102050781,0.001597896683961153,0.001065264455974102,-0.001065264455974102,-0.0080531276762485504,0.057715717703104019,0.1208103746175766,0.0,1.2581719160079956,0.49374979734420776,0.050626672804355621,0.39435410499572754,0.85720616579055786,0.75535959005355835,0.0,0.0,0.0,0.0,0.025000000000000001,0.040000000000000001,0.14000000000000001,0.29999999999999999,0.80000000000000004,1
16:49:11.659,0.92926764488220215,0.10538086295127869,-10.030342102050781,0.001597896683961153,0.001065264455974102,-0.001065264455974102,-0.0080531276762485504,0.057715717703104019,0.1208103746175766,0.0,1.2581719160079956,0.49374979734420776,0.050626672804355621,0.39435410499572754,0.85720616579055786,0.75535959005355835,0.0,0.0,0.0,0.0,0.025000000000000001,0.040000000000000001,0.14000000000000001,0.29999999999999999,0.80000000000000004,1
16:49:11.707,0.92926764488220215,0.10538086295127869,-10.030342102050781,0.001597896683961153,0.001065264455974102,-0.001065264455974102,-0.0080531276762485504,0.057715717703104019,0.1208103746175766,0.0,1.2581719160079956,0.49374979734420776,0.050626672804355621,0.39435410499572754,0.85720616579055786,0.75535959005355835,0.0,0.0,0.0,0.0,0.025000000000000001,0.040000000000000001,0.14000000000000001,0.29999999999999999,0.80000000000000004,1
16:49:11.755,0.92926764488220215,0.10538086295127869,-10.030342102050781,0.001597896683961153,0.001065264455974102,-0.001065264455974102,-0.0080531276762485504,0.057715717703104019,0.1208103746175766,0.0,1.2581719160079956,0.49374979734420776,0.050626672804355621,0.39435410499572754,0.85720616579055786,0.75535959005355835,0.0,0.0,0.0,0.0,0.025000000000000001,0.040000000000000001,0.14000000000000001,0.29999999999999999,0.80000000000000004,1
16:49:11.807,0.93884772062301636,0.1149609386920929,-10.011181831359863,-0.0018642127979546785,0.0042610578238964081,-0.0069242189638316631,-0.0080531276762485504,0.057715717703104019,0.1203383207321167,0.0,1.2581719160079956,0.49374979734420776,0.049810640513896942,0.39259183406829834,0.85720616579055786,0.75535959005355835,0.0,0.0,0.0,0.0,0.025000000000000001,0.040000000000000001,0.14000000000000001,0.29999999999999999,0.80000000000000004,1
16:49:11.861,0.93884772062301636,0.1149609386920929,-10.011181831359863,-0.0018642127979546785,0.0042610578238964081,-0.0069242189638316631,-0.0080531276762485504,0.057715717703104019,0.1203383207321167,0.0,1.2581719160079956,0.49374979734420776,0.049810640513896942,0.39259183406829834,0.85720616579055786,0.75535959005355835,0.0,0.0,0.0,0.0,0.025000000000000001,0.040000000000000001,0.14000000000000001,0.29999999999999999,0.80000000000000004,1
16:49:11.907,0.93884772062301636,0.1149609386920929,-10.011181831359863,-0.0018642127979546785,0.0042610578238964081,-0.0069242189638316631,-0.0080531276762485504,0.057715717703104019,0.1203383207321167,0.0,1.2581719160079956,0.49374979734420776,0.049810640513896942,0.39259183406829834,0.85720616579055786,0.75535959005355835,0.0,0.0,0.0,0.0,0.025000000000000001,0.040000000000000001,0.14000000000000001,0.29999999999999999,0.80000000000000004,1
16:49:11.959,0.93884772062301636,0.1149609386920929,-10.011181831359863,-0.0018642127979546785,0.0042610578238964081,-0.0069242189638316631,-0.0080531276762485504,0.057715717703104019,0.1203383207321167,0.0,1.2581719160079956,0.49374979734420776,0.049810640513896942,0.39259183406829834,0.85720616579055786,0.75535959005355835,0.0,0.0,0.0,0.0,0.025000000000000001,0.040000000000000001,0.14000000000000001,0.29999999999999999,0.80000000000000004,1
16:49:12.009,0.93884772062301636,0.1149609386920929,-10.011181831359863,-0.0018642127979546785,0.0042610578238964081,-0.0069242189638316631,-0.0080531276762485504,0.057715717703104019,0.1203383207321167,0.0,1.2581719160079956,0.49374979734420776,0.049810640513896942,0.39259183406829834,0.85720616579055786,0.75535959005355835,0.0,0.0,0.0,0.0,0.025000000000000001,0.040000000000000001,0.14000000000000001,0.29999999999999999,0.80000000000000004,1
16:49:12.058,0.93884772062301636,0.1149609386920929,-10.011181831359863,-0.0018642127979546785,0.0042610578238964081,-0.0069242189638316631,-0.0080531276762485504,0.057715717703104019,0.1203383207321167,0.0,1.2581719160079956,0.49374979734420776,0.049810640513896942,0.39259183406829834,0.85720616579055786,0.75535959005355835,0.0,0.0,0.0,0.0,0.025000000000000001,0.040000000000000001,0.14000000000000001,0.29999999999999999,0.80000000000000004,1
16:49:12.139,0.93884772062301636,0.1149609386920929,-10.011181831359863,-0.0018642127979546785,0.0042610578238964081,-0.0069242189638316631,-0.0080531276762485504,0.058291260153055191,0.1203383207321167,0.0,1.2581719160079956,0.49515172839164734,0.049607705324888229,0.39259183406829834,0.85720616579055786,0.75535959005355835,0.0,0.0,0.0,0.0,0.025000000000000001,0.040000000000000001,0.14000000000000001,0.29999999999999999,0.80000000000000004,1
16:49:12.158,0.96758794784545898,0.13412110507488251,-10.039922714233398,0.0,0.0013315805699676275,0.0018642127979546785,-0.0084365047514438629,0.058291260153055191,0.11706903576850891,0.0,1.2632519006729126,0.49515172839164734,0.049607705324888229,0.39083617925643921,0.85720616579055786,0.75809067487716675,0.0,0.0,0.0,0.0,0.025000000000000001,0.040000000000000001,0.14000000000000001,0.29999999999999999,0.80000000000000004,1
16:49:12.221,0.96758794784545898,0.13412110507488251,-10.039922714233398,0.0,0.0013315805699676275,0.0018642127979546785,-0.0084365047514438629,0.058291260153055191,0.11706903576850891,0.0,1.2632519006729126,0.49515172839164734,0.049607705324888229,0.39083617925643921,0.85720616579055786,0.75809067487716675,0.0,0.0,0.0,0.0,0.025000000000000001,0.040000000000000001,0.14000000000000001,0.29999999999999999,0.80000000000000004,1
16:49:12.259,0.96758794784545898,0.13412110507488251,-10.039922714233398,0.0,0.0013315805699676275,0.0018642127979546785,-0.0084365047514438629,0.058291260153055191,0.11706903576850891,0.0,1.2632519006729126,0.49515172839164734,0.049607705324888229,0.39083617925643921,0.85720616579055786,0.75809067487716675,0.0,0.0,0.0,0.0,0.025000000000000001,0.040000000000000001,0.14000000000000001,0.29999999999999999,0.80000000000000004,1
16:49:12.311,0.96758794784545898,0.13412110507488251,-10.039922714233398,0.0,0.0013315805699676275,0.0018642127979546785,-0.0084365047514438629,0.058291260153055191,0.11706903576850891,0.0,1.2632519006729126,0.49515172839164734,0.049607705324888229,0.39083617925643921,0.85720616579055786,0.75809067487716675,0.0,0.0,0.0,0.0,0.025000000000000001,0.040000000000000001,0.14000000000000001,0.29999999999999999,0.80000000000000004,1
16:49:12.358,0.96758794784545898,0.13412110507488251,-10.039922714233398,0.0,0.0013315805699676275,0.0018642127979546785,-0.0084365047514438629,0.058291260153055191,0.11706903576850891,0.0,1.2632519006729126,0.49515172839164734,0.049607705324888229,0.39083617925643921,0.85720616579055786,0.75809067487716675,0.0,0.0,0.0,0.0,0.025000000000000001,0.040000000000000001,0.14000000000000001,0.29999999999999999,0.80000000000000004,1
16:49:12.422,0.96758794784545898,0.13412110507488251,-10.039922714233398,0.0,0.0013315805699676275,0.0018642127979546785,-0.0084365047514438629,0.058291260153055191,0.11706903576850891,0.0,1.2632519006729126,0.49515172839164734,0.049607705324888229,0.39083617925643921,0.85720616579055786,0.75809067487716675,0.0,0.0,0.0,0.0,0.025000000000000001,0.040000000000000001,0.14000000000000001,0.29999999999999999,0.80000000000000004,1
16:49:12.474,0.96758794784545898,0.13412110507488251,-10.039922714233398,-0.0023968450259417295,-0.001597896683961153,0.0018642127979546785,-0.0084365047514438629,0.057907406240701675,0.11706903576850891,0.0,1.2632519006729126,0.49797412753105164,0.049203090369701385,0.39083617925643921,0.86029011011123657,0.75809067487716675,0.0,0.0,0.0,0.0,0.025000000000000001,0.040000000000000001,0.14000000000000001,0.29999999999999999,0.80000000000000004,1
16:49:12.514,0.92926764488220215,0.095800787210464478,-10.001602172851562,-0.0023968450259417295,-0.001597896683961153,-0.00026631611399352551,-0.0086286701261997223,0.057907406240701675,0.11026299744844437,0.0,1.2632519006729126,0.49797412753105164,0.049203090369701385,0.38560846447944641,0.86029011011123657,0.77485841512680054,0.0,0.0,0.0,0.0,0.025000000000000001,0.040000000000000001,0.14000000000000001,0.29999999999999999,0.80000000000000004,1
16:49:12.560,0.92926764488220215,0.095800787210464478,-10.001602172851562,-0.0023968450259417295,-0.001597896683961153,-0.00026631611399352551,-0.0086286701261997223,0.057907406240701675,0.11026299744844437,0.0,1.2632519006729126,0.49797412753105164,0.049203090369701385,0.38560846447944641,0.86029011011123657,0.77485841512680054,0.0,0.0,0.0,0.0,0.025000000000000001,0.040000000000000001,0.14000000000000001,0.29999999999999999,0.80000000000000004,1
16:49:12.616,0.92926764488220215,0.095800787210464478,-10.001602172851562,-0.0023968450259417295,-0.001597896683961153,-0.00026631611399352551,-0.0086286701261997223,0.057907406240701675,0.11026299744844437,0.0,1.2632519006729126,0.49797412753105164,0.049203090369701385,0.38560846447944641,0.86029011011123657,0.77485841512680054,0.0,0.0,0.0,0.0,0.025000000000000001,0.040000000000000001,0.14000000000000001,0.29999999999999999,0.80000000000000004,1
16:49:12.666,0.92926764488220215,0.095800787210464478,-10.001602172851562,-0.0023968450259417295,-0.001597896683961153,-0.00026631611399352551,-0.0086286701261997223,0.057907406240701675,0.11026299744844437,0.0,1.2632519006729126,0.49797412753105164,0.049203090369701385,0.38560846447944641,0.86029011011123657,0.77485841512680054,0.0,0.0,0.0,0.0,0.025000000000000001,0.040000000000000001,0.14000000000000001,0.29999999999999999,0.80000000000000004,1
16:49:12.719,0.92926764488220215,0.095800787210464478,-10.001602172851562,-0.0023968450259417295,-0.001597896683961153,-0.00026631611399352551,-0.0086286701261997223,0.057907406240701675,0.11026299744844437,0.0,1.2632519006729126,0.49797412753105164,0.049203090369701385,0.38560846447944641,0.86029011011123657,0.77485841512680054,0.0,0.0,0.0,0.0,0.025000000000000001,0.040000000000000001,0.14000000000000001,0.29999999999999999,0.80000000000000004,1
16:49:12.794,0.92926764488220215,0.095800787210464478,-10.001602172851562,-0.0023968450259417295,-0.001597896683961153,-0.00026631611399352551,-0.0086286701261997223,0.057907406240701675,0.11026299744844437,0.0,1.2632519006729126,0.49797412753105164,0.049203090369701385,0.38560846447944641,0.86029011011123657,0.77485841512680054,0.0,0.0,0.0,0.0,0.025000000000000001,0.040000000000000001,0.14000000000000001,0.29999999999999999,0.80000000000000004,1
16:49:12.820,0.94842779636383057,0.1245410218834877,-9.9824419021606445,-0.0018642127979546785,0.00053263222798705101,-0.0018642127979546785,-0.0086286701261997223,0.058099094778299332,0.10849250108003616,0.0,1.2683694362640381,0.50513982772827148,0.045441996306180954,0.37702420353889465,0.86339348554611206,0.78349548578262329,0.0,0.0,0.0,0.0,0.025000000000000001,0.040000000000000001,0.14000000000000001,0.29999999999999999,0.80000000000000004,1
16:49:12.865,0.94842779636383057,0.1245410218834877,-9.9824419021606445,-0.0018642127979546785,0.00053263222798705101,-0.0018642127979546785,-0.0082448162138462067,0.058099094778299332,0.10849250108003616,0.0,1.2683694362640381,0.50513982772827148,0.045441996306180954,0.37702420353889465,0.86339348554611206,0.78349548578262329,0.0,0.0,0.0,0.0,0.025000000000000001,0.040000000000000001,0.14000000000000001,0.29999999999999999,0.80000000000000004,1
16:49:12.913,0.94842779636383057,0.1245410218834877,-9.9824419021606445,-0.0018642127979546785,0.00053263222798705101,-0.0018642127979546785,-0.0082448162138462067,0.058099094778299332,0.10849250108003616,0.0,1.2683694362640381,0.50513982772827148,0.045441996306180954,0.37702420353889465,0.86339348554611206,0.78349548578262329,0.0,0.0,0.0,0.0,0.025000000000000001,0.040000000000000001,0.14000000000000001,0.29999999999999999,0.80000000000000004,1
16:49:12.966,0.94842779636383057,0.1245410218834877,-9.9824419021606445,-0.0018642127979546785,0.00053263222798705101,-0.0018642127979546785,-0.0082448162138462067,0.058099094778299332,0.10849250108003616,0.0,1.2683694362640381,0.50513982772827148,0.045441996306180954,0.37702420353889465,0.86339348554611206,0.78349548578262329,0.0,0.0,0.0,0.0,0.025000000000000001,0.040000000000000001,0.14000000000000001,0.29999999999999999,0.80000000000000004,1
16:49:13.017,0.94842779636383057,0.1245410218834877,-9.9824419021606445,-0.0018642127979546785,0.00053263222798705101,-0.0018642127979546785,-0.0082448162138462067,0.058099094778299332,0.10849250108003616,0.0,1.2683694362640381,0.50513982772827148,0.045441996306180954,0.37702420353889465,0.86339348554611206,0.78349548578262329,0.0,0.0,0.0,0.0,0.025000000000000001,0.040000000000000001,0.14000000000000001,0.29999999999999999,0.80000000000000004,1
16:49:13.069,0.94842779636383057,0.1245410218834877,-9.9824419021606445,-0.0018642127979546785,0.00053263222798705101,-0.0018642127979546785,-0.0082448162138462067,0.058099094778299332,0.10849250108003616,0.0,1.2683694362640381,0.50513982772827148,0.045441996306180954,0.37702420353889465,0.86339348554611206,0.78349548578262329,0.0,0.0,0.0,0.0,0.025000000000000001,0.040000000000000001,0.14000000000000001,0.29999999999999999,0.80000000000000004,1
16:49:13.146,0.94842779636383057,0.1245410218834877,-9.9824419021606445,-0.001065264455974102,-0.0023968450259417295,0.0029294772539287806,-0.0082448162138462067,0.058291260153055191,0.10849250108003616,0.0,1.2683694362640381,0.50513982772827148,0.047205150127410889,0.37702420353889465,0.86339348554611206,0.78349548578262329,0.0,0.0,0.0,0.0,0.025000000000000001,0.040000000000000001,0.14000000000000001,0.29999999999999999,0.80000000000000004,1
16:49:13.168,0.94842779636383057,0.10538086295127869,-9.9728612899780273,-0.001065264455974102,-0.0023968450259417295,0.0029294772539287806,-0.0082448162138462067,0.058291260153055191,0.11706903576850891,0.0,1.2581719160079956,0.50513982772827148,0.047205150127410889,0.38908711075782776,0.86339348554611206,0.77201753854751587,0.0,0.0,0.0,0.0,0.025000000000000001,0.040000000000000001,0.14000000000000001,0.29999999999999999,0.80000000000000004,1
16:49:13.218,0.94842779636383057,0.10538086295127869,-9.9728612899780273,-0.001065264455974102,-0.0023968450259417295,0.0029294772539287806,-0.0082448162138462067,0.058291260153055191,0.11706903576850891,0.0,1.2581719160079956,0.50513982772827148,0.047205150127410889,0.38908711075782776,0.86339348554611206,0.77201753854751587,0.0,0.0,0.0,0.0,0.025000000000000001,0.040000000000000001,0.14000000000000001,0.29999999999999999,0.80000000000000004,1
16:49:13.269,0.94842779636383057,0.10538086295127869,-9.9728612899780273,-0.001065264455974102,-0.0023968450259417295,0.0029294772539287806,-0.0082448162138462067,0.058291260153055191,0.11706903576850891,0.0,1.2581719160079956,0.50513982772827148,0.047205150127410889,0.38908711075782776,0.86339348554611206,0.77201753854751587,0.0,0.0,0.0,0.0,0.025000000000000001,0.040000000000000001,0.14000000000000001,0.29999999999999999,0.80000000000000004,1
16:49:13.317,0.94842779636383057,0.10538086295127869,-9.9728612899780273,-0.001065264455974102,-0.0023968450259417295,0.0029294772539287806,-0.0082448162138462067,0.058291260153055191,0.11706903576850891,0.0,1.2581719160079956,0.50513982772827148,0.047205150127410889,0.38908711075782776,0.86339348554611206,0.77201753854751587,0.0,0.0,0.0,0.0,0.025000000000000001,0.040000000000000001,0.14000000000000001,0.29999999999999999,0.80000000000000004,1
16:49:13.365,0.94842779636383057,0.10538086295127869,-9.9728612899780273,-0.001065264455974102,-0.0023968450259417295,0.0029294772539287806,-0.0082448162138462067,0.058291260153055191,0.11706903576850891,0.0,1.2581719160079956,0.50513982772827148,0.047205150127410889,0.38908711075782776,0.86339348554611206,0.77201753854751587,0.0,0.0,0.0,0.0,0.025000000000000001,0.040000000000000001,0.14000000000000001,0.29999999999999999,0.80000000000000004,1
16:49:13.429,0.94842779636383057,0.10538086295127869,-9.9728612899780273,-0.001065264455974102,-0.0023968450259417295,0.0029294772539287806,-0.0082448162138462067,0.058291260153055191,0.11706903576850891,0.0,1.2581719160079956,0.50513982772827148,0.047205150127410889,0.38908711075782776,0.86339348554611206,0.77201753854751587,0.0,0.0,0.0,0.0,0.025000000000000001,0.040000000000000001,0.14000000000000001,0.29999999999999999,0.80000000000000004,1
16:49:13.486,0.94842779636383057,0.10538086295127869,-9.9728612899780273,0.0,0.0045273741707205772,-0.00026631611399352551,-0.0082448162138462067,0.05714065209031105,0.11706903576850891,0.0,1.2683694362640381,0.50369393825531006,0.047999359667301178,0.38908711075782776,0.86339348554611206,0.77201753854751587,0.0,0.0,0.0,0.0,0.025000000000000001,0.040000000000000001,0.14000000000000001,0.29999999999999999,0.80000000000000004,1
16:49:13.515,0.94842779636383057,0.10538086295127869,-9.9537019729614258,0.0,0.0045273741707205772,-0.00026631611399352551,-0.0082448162138462067,0.05714065209031105,0.11660692095756531,0.0,1.2683694362640381,0.50369393825531006,0.047999359667301178,0.38734450936317444,0.86339348554611206,0.76919543743133545,0.0,0.0,0.0,0.0,0.025000000000000001,0.040000000000000001,0.14000000000000001,0.29999999999999999,0.80000000000000004,1
16:49:13.564,0.94842779636383057,0.10538086295127869,-9.9537019729614258,0.0,0.0045273741707205772,-0.00026631611399352551,-0.0082448162138462067,0.05714065209031105,0.11660692095756531,0.0,1.2683694362640381,0.50369393825531006,0.047999359667301178,0.38734450936317444,0.86339348554611206,0.76919543743133545,0.0,0.0,0.0,0.0,0.025000000000000001,0.040000000000000001,0.14000000000000001,0.29999999999999999,0.80000000000000004,1
16:49:13.618,0.94842779636383057,0.10538086295127869,-9.9537019729614258,0.0,0.0045273741707205772,-0.00026631611399352551,-0.0082448162138462067,0.05714065209031105,0.11660692095756531,0.0,1.2683694362640381,0.50369393825531006,0.047999359667301178,0.38734450936317444,0.86339348554611206,0.76919543743133545,0.0,0.0,0.0,0.0,0.025000000000000001,0.040000000000000001,0.14000000000000001,0.29999999999999999,0.80000000000000004,1
16:49:13.672,0.94842779636383057,0.10538086295127869,-9.9537019729614258,0.0,0.0045273741707205772,-0.00026631611399352551,-0.0082448162138462067,0.05714065209031105,0.11660692095756531,0.0,1.2683694362640381,0.50369393825531006,0.047999359667301178,0.38734450936317444,0.86339348554611206,0.76919543743133545,0.0,0.0,0.0,0.0,0.025000000000000001,0.040000000000000001,0.14000000000000001,0.29999999999999999,0.80000000000000004,1
16:49:13.717,0.94842779636383057,0.10538086295127869,-9.9537019729614258,0.0,0.0045273741707205772,-0.00026631611399352551,-0.0082448162138462067,0.05714065209031105,0.11660692095756531,0.0,1.2683694362640381,0.50369393825531006,0.047999359667301178,0.38734450936317444,0.86339348554611206,0.76919543743133545,0.0,0.0,0.0,0.0,0.025000000000000001,0.040000000000000001,0.14000000000000001,0.29999999999999999,0.80000000000000004,1
16:49:13.773,0.94842779636383057,0.10538086295127869,-9.9537019729614258,0.0,0.0045273741707205772,-0.00026631611399352551,-0.0082448162138462067,0.05714065209031105,0.11660692095756531,0.0,1.2683694362640381,0.50369393825531006,0.047999359667301178,0.38734450936317444,0.86339348554611206,0.76919543743133545,0.0,0.0,0.0,0.0,0.025000000000000001,0.040000000000000001,0.14000000000000001,0.29999999999999999,0.80000000000000004,1
16:49:13.823,0.94842779636383057,0.1149609386920929,-9.9537019729614258,0.00079894834198057652,0.0013315805699676275,0.0,-0.0082448162138462067,0.058482948690652847,0.12128365784883499,0.0,1.2632519006729126,0.50659209489822388,0.047601435333490372,0.38734450936317444,0.85720616579055786,0.76919543743133545,0.0,0.0,0.0,0.0,0.025000000000000001,0.040000000000000001,0.14000000000000001,0.29999999999999999,0.80000000000000004,1
16:49:13.863,1.0154882669448853,0.1149609386920929,-10.011181831359863,0.00079894834198057652,0.0013315805699676275,0.0,-0.0084365047514438629,0.058482948690652847,0.12128365784883499,0.0,1.2632519006729126,0.50659209489822388,0.047601435333490372,0.39612296223640442,0.85720616579055786,0.75535959005355835,0.0,0.0,0.0,0.0,0.025000000000000001,0.040000000000000001,0.14000000000000001,0.29999999999999999,0.80000000000000004,1
16:49:13.918,1.0154882669448853,0.1149609386920929,-10.011181831359863,0.00079894834198057652,0.0013315805699676275,0.0,-0.0084365047514438629,0.058482948690652847,0.12128365784883499,0.0,1.2632519006729126,0.50659209489822388,0.047601435333490372,0.39612296223640442,0.85720616579055786,0.75535959005355835,0.0,0.0,0.0,0.0,0.025000000000000001,0.040000000000000001,0.14000000000000001,0.29999999999999999,0.80000000000000004,1
16:49:13.967,1.0154882669448853,0.1149609386920929,-10.011181831359863,0.00079894834198057652,0.0013315805699676275,0.0,-0.0084365047514438629,0.058482948690652847,0.12128365784883499,0.0,1.2632519006729126,0.50659209489822388,0.047601435333490372,0.39612296223640442,0.85720616579055786,0.75535959005355835,0.0,0.0,0.0,0.0,0.025000000000000001,0.040000000000000001,0.14000000000000001,0.29999999999999999,0.80000000000000004,1
16:49:14.024,1.0154882669448853,0.1149609386920929,-10.011181831359863,0.00079894834198057652,0.0013315805699676275,0.0,-0.0084365047514438629,0.058482948690652847,0.12128365784883499,0.0,1.2632519006729126,0.50659209489822388,0.047601435333490372,0.39612296223640442,0.85720616579055786,0.75535959005355835,0.0,0.0,0.0,0.0,0.025000000000000001,0.040000000000000001,0.14000000000000001,0.29999999999999999,0.80000000000000004,1
16:49:14.075,1.0154882669448853,0.1149609386920929,-10.011181831359863,0.00079894834198057652,0.0013315805699676275,0.0,-0.0084365047514438629,0.058482948690652847,0.12128365784883499,0.0,1.2632519006729126,0.50659209489822388,0.047601435333490372,0.39612296223640442,0.85720616579055786,0.75535959005355835,0.0,0.0,0.0,0.0,0.025000000000000001,0.040000000000000001,0.14000000000000001,0.29999999999999999,0.80000000000000004,1
16:49:14.157,1.0154882669448853,0.1149609386920929,-10.011181831359863,0.00079894834198057652,-0.0013315805699676275,0.002130528911948204,-0.0084365047514438629,0.058291260153055191,0.11660692095756531,0.0,1.2581719160079956,0.50369393825531006,0.049203090369701385,0.39612296223640442,0.85720616579055786,0.75535959005355835,0.0,0.0,0.0,0.0,0.025000000000000001,0.040000000000000001,0.14000000000000001,0.29999999999999999,0.80000000000000004,1
16:49:14.179,0.95800787210464478,0.1149609386920929,-10.02076244354248,0.00079894834198057652,-0.0013315805699676275,0.002130528911948204,-0.0084365047514438629,0.058291260153055191,0.11660692095756531,0.0,1.2581719160079956,0.50369393825531006,0.049203090369701385,0.39435410499572754,0.85720616579055786,0.77201753854751587,0.0,0.0,0.0,0.0,0.025000000000000001,0.040000000000000001,0.14000000000000001,0.29999999999999999,0.80000000000000004,1
16:49:14.228,0.95800787210464478,0.1149609386920929,-10.02076244354248,0.00079894834198057652,-0.0013315805699676275,0.002130528911948204,-0.0084365047514438629,0.058291260153055191,0.11660692095756531,0.0,1.2581719160079956,0.50369393825531006,0.049203090369701385,0.39435410499572754,0.85720616579055786,0.77201753854751587,0.0,0.0,0.0,0.0,0.025000000000000001,0.040000000000000001,0.14000000000000001,0.29999999999999999,0.80000000000000004,1
16:49:14.283,0.95800787210464478,0.1149609386920929,-10.02076244354248,0.00079894834198057652,-0.0013315805699676275,0.002130528911948204,-0.0084365047514438629,0.058291260153055191,0.11660692095756531,0.0,1.2581719160079956,0.50369393825531006,0.049203090369701385,0.39435410499572754,0.85720616579055786,0.77201753854751587,0.0,0.0,0.0,0.0,0.025000000000000001,0.040000000000000001,0.14000000000000001,0.29999999999999999,0.80000000000000004,1
16:49:14.325,0.95800787210464478,0.1149609386920929,-10.02076244354248,0.00079894834198057652,-0.0013315805699676275,0.002130528911948204,-0.0084365047514438629,0.058291260153055191,0.11660692095756531,0.0,1.2581719160079956,0.50369393825531006,0.049203090369701385,0.39435410499572754,0.85720616579055786,0.77201753854751587,0.0,0.0,0.0,0.0,0.025000000000000001,0.040000000000000001,0.14000000000000001,0.29999999999999999,0.80000000000000004,1
16:49:14.376,0.95800787210464478,0.1149609386920929,-10.02076244354248,0.00079894834198057652,-0.0013315805699676275,0.002130528911948204,-0.0084365047514438629,0.058291260153055191,0.11660692095756531,0.0,1.2581719160079956,0.50369393825531006,0.049203090369701385,0.39435410499572754,0.85720616579055786,0.77201753854751587,0.0,0.0,0.0,0.0,0.025000000000000001,0.040000000000000001,0.14000000000000001,0.29999999999999999,0.80000000000000004,1
16:49:14.427,0.95800787210464478,0.1149609386920929,-10.02076244354248,0.00079894834198057652,-0.0013315805699676275,0.002130528911948204,-0.0084365047514438629,0.058291260153055191,0.11660692095756531,0.0,1.2581719160079956,0.50369393825531006,0.049203090369701385,0.39435410499572754,0.85720616579055786,0.77201753854751587,0.0,0.0,0.0,0.0,0.025000000000000001,0.040000000000000001,0.14000000000000001,0.29999999999999999,0.80000000000000004,1
16:49:14.491,0.95800787210464478,0.1149609386920929,-10.02076244354248,0.001065264455974102,-0.01065264455974102,0.0053263222798705101,-0.0084365047514438629,0.058291260153055191,0.11660692095756531,0.0,1.2581719160079956,0.50369393825531006,0.044476453214883804,0.39435410499572754,0.86339348554611206,0.77201753854751587,0.0,0.0,0.0,0.0,0.025000000000000001,0.040000000000000001,0.14000000000000001,0.29999999999999999,0.80000000000000004,1
16:49:14.525,0.91010743379592896,0.1245410218834877,-10.030342102050781,0.001065264455974102,-0.01065264455974102,0.0053263222798705101,-0.0086286701261997223,0.058291260153055191,0.11115515232086182,0.0,1.2787191867828369,0.50369393825531006,0.044476453214883804,0.3685968816280365,0.86339348554611206,0.77771824598312378,0.0,0.0,0.0,0.0,0.025000000000000001,0.040000000000000001,0.14000000000000001,0.29999999999999999,0.80000000000000004,1
16:49:14.582,0.91010743379592896,0.1245410218834877,-10.030342102050781,0.001065264455974102,-0.01065264455974102,0.0053263222798705101,-0.0086286701261997223,0.058291260153055191,0.11115515232086182,0.0,1.2787191867828369,0.50369393825531006,0.044476453214883804,0.3685968816280365,0.86339348554611206,0.77771824598312378,0.0,0.0,0.0,0.0,0.025000000000000001,0.040000000000000001,0.14000000000000001,0.29999999999999999,0.80000000000000004,1
16:49:14.632,0.91010743379592896,0.1245410218834877,-10.030342102050781,0.001065264455974102,-0.01065264455974102,0.0053263222798705101,-0.0086286701261997223,0.058291260153055191,0.11115515232086182,0.0,1.2787191867828369,0.50369393825531006,0.044476453214883804,0.3685968816280365,0.86339348554611206,0.77771824598312378,0.0,0.0,0.0,0.0,0.025000000000000001,0.040000000000000001,0.14000000000000001,0.29999999999999999,0.80000000000000004,1
16:49:14.685,0.91010743379592896,0.1245410218834877,-10.030342102050781,0.001065264455974102,-0.01065264455974102,0.0053263222798705101,-0.0086286701261997223,0.058291260153055191,0.11115515232086182,0.0,1.2787191867828369,0.50369393825531006,0.044476453214883804,0.3685968816280365,0.86339348554611206,0.77771824598312378,0.0,0.0,0.0,0.0,0.025000000000000001,0.040000000000000001,0.14000000000000001,0.29999999999999999,0.80000000000000004,1
16:49:14.729,0.91010743379592896,0.1245410218834877,-10.030342102050781,0.001065264455974102,-0.01065264455974102,0.0053263222798705101,-0.0086286701261997223,0.058291260153055191,0.11115515232086182,0.0,1.2787191867828369,0.50369393825531006,0.044476453214883804,0.3685968816280365,0.86339348554611206,0.77771824598312378,0.0,0.0,0.0,0.0,0.025000000000000001,0.040000000000000001,0.14000000000000001,0.29999999999999999,0.80000000000000004,1
16:49:14.818,0.91010743379592896,0.1245410218834877,-10.030342102050781,0.001065264455974102,-0.01065264455974102,0.0053263222798705101,-0.0086286701261997223,0.058291260153055191,0.11115515232086182,0.0,1.2787191867828369,0.50369393825531006,0.044476453214883804,0.3685968816280365,0.86339348554611206,0.77771824598312378,0.0,0.0,0.0,0.0,0.025000000000000001,0.040000000000000001,0.14000000000000001,0.29999999999999999,0.80000000000000004,1
16:49:14.837,0.91968750953674316,0.1245410218834877,-10.011181831359863,-0.00079894834198057652,-0.00026631611399352551,0.0013315805699676275,-0.0086286701261997223,0.05714065209031105,0.1093754768371582,0.0,1.2892247438430786,0.50513982772827148,0.044861502945423126,0.3685968816280365,0.86651617288589478,0.78349548578262329,0.0,0.0,0.0,0.0,0.025000000000000001,0.040000000000000001,0.14000000000000001,0.29999999999999999,0.80000000000000004,1
16:49:14.890,0.91968750953674316,0.1245410218834877,-10.011181831359863,-0.00079894834198057652,-0.00026631611399352551,0.0013315805699676275,-0.0086286701261997223,0.05714065209031105,0.1093754768371582,0.0,1.2892247438430786,0.50513982772827148,0.044861502945423126,0.36526891589164734,0.86651617288589478,0.78349548578262329,0.0,0.0,0.0,0.0,0.025000000000000001,0.040000000000000001,0.14000000000000001,0.29999999999999999,0.80000000000000004,1
16:49:14.939,0.91968750953674316,0.1245410218834877,-10.011181831359863,-0.00079894834198057652,-0.00026631611399352551,0.0013315805699676275,-0.0086286701261997223,0.05714065209031105,0.1093754768371582,0.0,1.2892247438430786,0.50513982772827148,0.044861502945423126,0.36526891589164734,0.86651617288589478,0.78349548578262329,0.0,0.0,0.0,0.0,0.025000000000000001,0.040000000000000001,0.14000000000000001,0.29999999999999999,0.80000000000000004,1
16:49:14.991,0.91968750953674316,0.1245410218834877,-10.011181831359863,-0.00079894834198057652,-0.00026631611399352551,0.0013315805699676275,-0.0086286701261997223,0.05714065209031105,0.1093754768371582,0.0,1.2892247438430786,0.50513982772827148,0.044861502945423126,0.36526891589164734,0.86651617288589478,0.78349548578262329,0.0,0.0,0.0,0.0,0.025000000000000001,0.040000000000000001,0.14000000000000001,0.29999999999999999,0.80000000000000004,1
16:49:15.038,0.91968750953674316,0.1245410218834877,-10.011181831359863,-0.00079894834198057652,-0.00026631611399352551,0.0013315805699676275,-0.0086286701261997223,0.05714065209031105,0.1093754768371582,0.0,1.2892247438430786,0.50513982772827148,0.044861502945423126,0.36526891589164734,0.86651617288589478,0.78349548578262329,0.0,0.0,0.0,0.0,0.025000000000000001,0.040000000000000001,0.14000000000000001,0.29999999999999999,0.80000000000000004,1
16:49:15.089,0.91968750953674316,0.1245410218834877,-10.011181831359863,-0.00079894834198057652,-0.00026631611399352551,0.0013315805699676275,-0.0086286701261997223,0.05714065209031105,0.1093754768371582,0.0,1.2892247438430786,0.50513982772827148,0.044861502945423126,0.36526891589164734,0.86651617288589478,0.78349548578262329,0.0,0.0,0.0,0.0,0.025000000000000001,0.040000000000000001,0.14000000000000001,0.29999999999999999,0.80000000000000004,1
16:49:15.165,0.91968750953674316,0.1245410218834877,-10.011181831359863,-0.00079894834198057652,0.0034621094819158316,-0.0031957933679223061,-0.0086286701261997223,0.056565109640359879,0.1093754768371582,0.0,1.2892247438430786,0.50805085897445679,0.045054599642753601,0.36526891589164734,0.86965858936309814,0.78349548578262329,0.0,0.0,0.0,0.0,0.025000000000000001,0.040000000000000001,0.14000000000000001,0.29999999999999999,0.80000000000000004,1
16:49:15.185,0.95800787210464478,0.14370118081569672,-9.9537019729614258,-0.00079894834198057652,0.0034621094819158316,-0.0031957933679223061,-0.0086286701261997223,0.056565109640359879,0.11205196380615234,0.0,1.2839523553848267,0.50805085897445679,0.045054599642753601,0.38043880462646484,0.86965858936309814,0.78349548578262329,0.0,0.0,0.0,0.0,0.025000000000000001,0.040000000000000001,0.14000000000000001,0.29999999999999999,0.80000000000000004,1
16:49:15.238,0.95800787210464478,0.14370118081569672,-9.9537019729614258,-0.00079894834198057652,0.0034621094819158316,-0.0031957933679223061,-0.0086286701261997223,0.056565109640359879,0.11205196380615234,0.0,1.2839523553848267,0.50805085897445679,0.045054599642753601,0.38043880462646484,0.86965858936309814,0.78349548578262329,0.0,0.0,0.0,0.0,0.025000000000000001,0.040000000000000001,0.14000000000000001,0.29999999999999999,0.80000000000000004,1
16:49:15.292,0.95800787210464478,0.14370118081569672,-9.9537019729614258,-0.00079894834198057652,0.0034621094819158316,-0.0031957933679223061,-0.0086286701261997223,0.056565109640359879,0.11205196380615234,0.0,1.2839523553848267,0.50805085897445679,0.045054599642753601,0.38043880462646484,0.86965858936309814,0.78349548578262329,0.0,0.0,0.0,0.0,0.025000000000000001,0.040000000000000001,0.14000000000000001,0.29999999999999999,0.80000000000000004,1
16:49:15.343,0.95800787210464478,0.14370118081569672,-9.9537019729614258,-0.00079894834198057652,0.0034621094819158316,-0.0031957933679223061,-0.0086286701261997223,0.056565109640359879,0.11205196380615234,0.0,1.2839523553848267,0.50805085897445679,0.045054599642753601,0.38043880462646484,0.86965858936309814,0.78349548578262329,0.0,0.0,0.0,0.0,0.025000000000000001,0.040000000000000001,0.14000000000000001,0.29999999999999999,0.80000000000000004,1
16:49:15.385,0.95800787210464478,0.14370118081569672,-9.9537019729614258,-0.00079894834198057652,0.0034621094819158316,-0.0031957933679223061,-0.0086286701261997223,0.056565109640359879,0.11205196380615234,0.0,1.2839523553848267,0.50805085897445679,0.045054599642753601,0.38043880462646484,0.86965858936309814,0.78349548578262329,0.0,0.0,0.0,0.0,0.025000000000000001,0.040000000000000001,0.14000000000000001,0.29999999999999999,0.80000000000000004,1
16:49:15.438,0.95800787210464478,0.14370118081569672,-9.9537019729614258,-0.00079894834198057652,0.0034621094819158316,-0.0031957933679223061,-0.0086286701261997223,0.056565109640359879,0.11205196380615234,0.0,1.2839523553848267,0.50805085897445679,0.045054599642753601,0.38043880462646484,0.86965858936309814,0.78349548578262329,0.0,0.0,0.0,0.0,0.025000000000000001,0.040000000000000001,0.14000000000000001,0.29999999999999999,0.80000000000000004,1
16:49:15.505,0.97716802358627319,0.13412110507488251,-9.9537019729614258,-0.001597896683961153,-0.0018642127979546785,0.0058589545078575611,-0.0086286701261997223,0.056757275015115738,0.10717657953500748,0.0,1.2892247438430786,0.51098805665969849,0.043901838362216949,0.38043880462646484,0.86965858936309814,0.78349548578262329,0.0,0.0,0.0,0.0,0.025000000000000001,0.040000000000000001,0.14000000000000001,0.29999999999999999,0.80000000000000004,1
16:49:15.541,0.97716802358627319,0.13412110507488251,-10.001602172851562,-0.001597896683961153,-0.0018642127979546785,0.0058589545078575611,-0.0082448162138462067,0.056757275015115738,0.10717657953500748,0.0,1.2892247438430786,0.51098805665969849,0.043901838362216949,0.37194925546646118,0.86965858936309814,0.79230821132659912,0.0,0.0,0.0,0.0,0.025000000000000001,0.040000000000000001,0.14000000000000001,0.29999999999999999,0.80000000000000004,1
16:49:15.588,0.97716802358627319,0.13412110507488251,-10.001602172851562,-0.001597896683961153,-0.0018642127979546785,0.0058589545078575611,-0.0082448162138462067,0.056757275015115738,0.10717657953500748,0.0,1.2892247438430786,0.51098805665969849,0.043901838362216949,0.37194925546646118,0.86965858936309814,0.79230821132659912,0.0,0.0,0.0,0.0,0.025000000000000001,0.040000000000000001,0.14000000000000001,0.29999999999999999,0.80000000000000004,1
16:49:15.638,0.97716802358627319,0.13412110507488251,-10.001602172851562,-0.001597896683961153,-0.0018642127979546785,0.0058589545078575611,-0.0082448162138462067,0.056757275015115738,0.10717657953500748,0.0,1.2892247438430786,0.51098805665969849,0.043901838362216949,0.37194925546646118,0.86965858936309814,0.79230821132659912,0.0,0.0,0.0,0.0,0.025000000000000001,0.040000000000000001,0.14000000000000001,0.29999999999999999,0.80000000000000004,1
16:49:15.691,0.97716802358627319,0.13412110507488251,-10.001602172851562,-0.001597896683961153,-0.0018642127979546785,0.0058589545078575611,-0.0082448162138462067,0.056757275015115738,0.10717657953500748,0.0,1.2892247438430786,0.51098805665969849,0.043901838362216949,0.37194925546646118,0.86965858936309814,0.79230821132659912,0.0,0.0,0.0,0.0,0.025000000000000001,0.040000000000000001,0.14000000000000001,0.29999999999999999,0.80000000000000004,1
16:49:15.743,0.97716802358627319,0.13412110507488251,-10.001602172851562,-0.001597896683961153,-0.0018642127979546785,0.0058589545078575611,-0.0082448162138462067,0.056757275015115738,0.10717657953500748,0.0,1.2892247438430786,0.51098805665969849,0.043901838362216949,0.37194925546646118,0.86965858936309814,0.79230821132659912,0.0,0.0,0.0,0.0,0.025000000000000001,0.040000000000000001,0.14000000000000001,0.29999999999999999,0.80000000000000004,1
16:49:15.832,0.97716802358627319,0.13412110507488251,-10.001602172851562,-0.001597896683961153,-0.0018642127979546785,0.0058589545078575611,-0.0082448162138462067,0.056373421102762222,0.10717657953500748,0.0,1.2892247438430786,0.51098805665969849,0.043901838362216949,0.37194925546646118,0.86965858936309814,0.79230821132659912,0.0,0.0,0.0,0.0,0.025000000000000001,0.040000000000000001,0.14000000000000001,0.29999999999999999,0.80000000000000004,1
16:49:15.852,0.91010743379592896,0.10538086295127869,-10.039922714233398,-0.0031957933679223061,0.0,0.0013315805699676275,-0.0082448162138462067,0.056373421102762222,0.10243695974349976,0.0,1.2892247438430786,0.50805085897445679,0.040710732340812683,0.36692985892295837,0.87600308656692505,0.80740129947662354,0.0,0.0,0.0,0.0,0.025000000000000001,0.040000000000000001,0.14000000000000001,0.29999999999999999,0.80000000000000004,1
16:49:15.906,0.91010743379592896,0.10538086295127869,-10.039922714233398,-0.0031957933679223061,0.0,0.0013315805699676275,-0.0082448162138462067,0.056373421102762222,0.10243695974349976,0.0,1.2892247438430786,0.50805085897445679,0.040710732340812683,0.36692985892295837,0.87600308656692505,0.80740129947662354,0.0,0.0,0.0,0.0,0.025000000000000001,0.040000000000000001,0.14000000000000001,0.29999999999999999,0.80000000000000004,1
16:49:15.949,0.91010743379592896,0.10538086295127869,-10.039922714233398,-0.0031957933679223061,0.0,0.0013315805699676275,-0.0082448162138462067,0.056373421102762222,0.10243695974349976,0.0,1.2892247438430786,0.50805085897445679,0.040710732340812683,0.36692985892295837,0.87600308656692505,0.80740129947662354,0.0,0.0,0.0,0.0,0.025000000000000001,0.040000000000000001,0.14000000000000001,0.29999999999999999,0.80000000000000004,1
16:49:16.002,0.91010743379592896,0.10538086295127869,-10.039922714233398,-0.0031957933679223061,0.0,0.0013315805699676275,-0.0082448162138462067,0.056373421102762222,0.10243695974349976,0.0,1.2892247438430786,0.50805085897445679,0.040710732340812683,0.36692985892295837,0.87600308656692505,0.80740129947662354,0.0,0.0,0.0,0.0,0.025000000000000001,0.040000000000000001,0.14000000000000001,0.29999999999999999,0.80000000000000004,1
16:49:16.053,0.91010743379592896,0.10538086295127869,-10.039922714233398,-0.0031957933679223061,0.0,0.0013315805699676275,-0.0082448162138462067,0.056373421102762222,0.10243695974349976,0.0,1.2892247438430786,0.50805085897445679,0.040710732340812683,0.36692985892295837,0.87600308656692505,0.80740129947662354,0.0,0.0,0.0,0.0,0.025000000000000001,0.040000000000000001,0.14000000000000001,0.29999999999999999,0.80000000000000004,1
16:49:16.109,0.91010743379592896,0.10538086295127869,-10.039922714233398,-0.0031957933679223061,0.0,0.0013315805699676275,-0.0082448162138462067,0.056373421102762222,0.10243695974349976,0.0,1.2892247438430786,0.50805085897445679,0.040710732340812683,0.36692985892295837,0.87600308656692505,0.80740129947662354,0.0,0.0,0.0,0.0,0.025000000000000001,0.040000000000000001,0.14000000000000001,0.29999999999999999,0.80000000000000004,1
16:49:16.174,0.91010743379592896,0.10538086295127869,-10.039922714233398,-0.00079894834198057652,-0.0029294772539287806,0.0037284255959093571,-0.0082448162138462067,0.056565109640359879,0.10243695974349976,0.0,1.2998893260955811,0.51246649026870728,0.042574599385261536,0.36692985892295837,0.87920552492141724,0.80740129947662354,0.0,0.0,0.0,0.0,0.025000000000000001,0.040000000000000001,0.14000000000000001,0.29999999999999999,0.80000000000000004,1
16:49:16.202,0.96758794784545898,0.057480469346046448,-10.001602172851562,-0.00079894834198057652,-0.0029294772539287806,0.0037284255959093571,-0.0082448162138462067,0.056565109640359879,0.10587071627378464,0.0,1.2998893260955811,0.51246649026870728,0.042574599385261536,0.36692985892295837,0.87920552492141724,0.80740129947662354,0.0,0.0,0.0,0.0,0.025000000000000001,0.040000000000000001,0.14000000000000001,0.29999999999999999,0.80000000000000004,1
16:49:16.250,0.96758794784545898,0.057480469346046448,-10.001602172851562,-0.00079894834198057652,-0.0029294772539287806,0.0037284255959093571,-0.0082448162138462067,0.056565109640359879,0.10587071627378464,0.0,1.2998893260955811,0.51246649026870728,0.042574599385261536,0.36692985892295837,0.87920552492141724,0.80740129947662354,0.0,0.0,0.0,0.0,0.025000000000000001,0.040000000000000001,0.14000000000000001,0.29999999999999999,0.80000000000000004,1
16:49:16.306,0.96758794784545898,0.057480469346046448,-10.001602172851562,-0.00079894834198057652,-0.0029294772539287806,0.0037284255959093571,-0.0082448162138462067,0.056565109640359879,0.10587071627378464,0.0,1.2998893260955811,0.51246649026870728,0.042574599385261536,0.36692985892295837,0.87920552492141724,0.80740129947662354,0.0,0.0,0.0,0.0,0.025000000000000001,0.040000000000000001,0.14000000000000001,0.29999999999999999,0.80000000000000004,1
16:49:16.357,0.96758794784545898,0.057480469346046448,-10.001602172851562,-0.00079894834198057652,-0.0029294772539287806,0.0037284255959093571,-0.0082448162138462067,0.056565109640359879,0.10587071627378464,0.0,1.2998893260955811,0.51246649026870728,0.042574599385261536,0.36692985892295837,0.87920552492141724,0.80740129947662354,0.0,0.0,0.0,0.0,0.025000000000000001,0.040000000000000001,0.14000000000000001,0.29999999999999999,0.80000000000000004,1
