timestamp,accel_x,accel_y,accel_z,gyro_x,gyro_y,gyro_z,angle_x,angle_y,lfoot_fl,lfoot_fr,lfoot_rl,lfoot_rr,rfoot_fl,rfoot_fr,rfoot_rl,rfoot_rr,vx,vy,wz,vtotal,StepHeight,MaxStepX,MaxStepY,MaxStepTheta,Frequency,stable
21:08:11.198,1.0346485376358032,0.067060552537441254,-9.9249610900878906,0.012250540778040886,-0.075900092720985413,-0.00079894834198057652,-0.011312786489725113,0.080917187035083771,0.0,0.0,1.4036736488342285,0.40671297907829285,0.069751650094985962,0.4197399914264679,0.79389399290084839,0.061341281980276108,0.0,0.0,0.0,0.0,0.024941748380661009,0.039848464727401736,0.19937031745910644,0.30006647109985352,0.79831112921237946,1
21:08:11.255,1.0346485376358032,0.067060552537441254,-9.9249610900878906,0.012250540778040886,-0.075900092720985413,-0.00079894834198057652,-0.011312786489725113,0.080917187035083771,0.0,0.0,1.4036736488342285,0.40671297907829285,0.069751650094985962,0.4197399914264679,0.79389399290084839,0.061341281980276108,0.0,0.0,0.0,0.0,0.024941748380661009,0.039848464727401736,0.19937031745910644,0.30006647109985352,0.79831112921237946,1
21:08:11.339,1.0538086891174316,0.019160157069563866,-9.9728612899780273,-0.0018642127979546785,0.052464272826910019,-0.017310546711087227,-0.011312786489725113,0.07535678893327713,0.0,0.0,1.4036736488342285,0.44466483592987061,0.12089234590530396,0.4197399914264679,0.50350350141525269,0.0011656919959932566,0.0,0.0,0.0,0.0,0.024941748380661009,0.039848464727401736,0.19937031745910644,0.30006647109985352,0.79831112921237946,1
21:08:11.360,1.0538086891174316,0.019160157069563866,-9.9728612899780273,-0.0018642127979546785,0.052464272826910019,-0.017310546711087227,-0.011312786489725113,0.07535678893327713,0.0,0.0,1.4036736488342285,0.44466483592987061,0.12089234590530396,0.45048636198043823,0.50350350141525269,0.0011656919959932566,0.0,0.0,0.0,0.0,0.024941748380661009,0.039848464727401736,0.19937031745910644,0.30006647109985352,0.79831112921237946,1
21:08:11.413,1.0538086891174316,0.019160157069563866,-9.9728612899780273,-0.0018642127979546785,0.052464272826910019,-0.017310546711087227,-0.011312786489725113,0.07535678893327713,0.0,0.0,1.4036736488342285,0.44466483592987061,0.12089234590530396,0.45048636198043823,0.50350350141525269,0.0011656919959932566,0.0,0.0,0.0,0.0,0.024941748380661009,0.039848464727401736,0.19937031745910644,0.30006647109985352,0.79831112921237946,1
21:08:11.460,1.0538086891174316,0.019160157069563866,-9.9728612899780273,-0.0018642127979546785,0.052464272826910019,-0.017310546711087227,-0.011312786489725113,0.07535678893327713,0.0,0.0,1.4036736488342285,0.44466483592987061,0.12089234590530396,0.45048636198043823,0.50350350141525269,0.0011656919959932566,0.0,0.0,0.0,0.0,0.024941748380661009,0.039848464727401736,0.19937031745910644,0.30006647109985352,0.79831112921237946,1
21:08:11.514,1.0538086891174316,0.019160157069563866,-9.9728612899780273,-0.0018642127979546785,0.052464272826910019,-0.017310546711087227,-0.011312786489725113,0.07535678893327713,0.0,0.0,1.4036736488342285,0.44466483592987061,0.12089234590530396,0.45048636198043823,0.50350350141525269,0.0011656919959932566,0.0,0.0,0.0,0.0,0.024941748380661009,0.039848464727401736,0.19937031745910644,0.30006647109985352,0.79831112921237946,1
21:08:11.566,1.0538086891174316,0.019160157069563866,-9.9728612899780273,-0.0018642127979546785,0.052464272826910019,-0.017310546711087227,-0.011312786489725113,0.07535678893327713,0.0,0.0,1.4036736488342285,0.44466483592987061,0.12089234590530396,0.45048636198043823,0.50350350141525269,0.0011656919959932566,0.0,0.0,0.0,0.0,0.024941748380661009,0.039848464727401736,0.19937031745910644,0.30006647109985352,0.79831112921237946,1
21:08:11.628,1.0538086891174316,0.019160157069563866,-9.9728612899780273,-0.0018642127979546785,0.052464272826910019,-0.017310546711087227,-0.011312786489725113,0.07535678893327713,0.0,0.0,1.4036736488342285,0.44466483592987061,0.12089234590530396,0.45048636198043823,0.50350350141525269,0.0011656919959932566,0.0,0.0,0.0,0.0,0.024941748380661009,0.039848464727401736,0.19937031745910644,0.30006647109985352,0.79831112921237946,1
21:08:11.677,1.5232324600219727,0.047900393605232239,-9.7525196075439453,0.02876213937997818,0.30013826489448547,-0.1227717250585556,-0.0093954242765903473,0.12866240739822388,0.0,0.12239664793014526,0.52050226926803589,0.81830871105194092,0.19401565194129944,0.0,1.0932763814926147,0.0012207078980281949,0.0,0.0,0.0,0.0,0.024941748380661009,0.039848464727401736,0.19937031745910644,0.30006647109985352,0.79831112921237946,1
21:08:11.713,1.5232324600219727,0.047900393605232239,-9.7525196075439453,0.02876213937997818,0.30013826489448547,-0.1227717250585556,-0.0093954242765903473,0.12866240739822388,0.0,0.12239664793014526,0.52050226926803589,0.81830871105194092,0.19401565194129944,0.0,1.0932763814926147,0.0012207078980281949,0.0,0.0,0.0,0.0,0.024941748380661009,0.039848464727401736,0.19937031745910644,0.30006647109985352,0.79831112921237946,1
21:08:11.759,1.5232324600219727,0.047900393605232239,-9.7525196075439453,0.02876213937997818,0.30013826489448547,-0.1227717250585556,-0.0093954242765903473,0.12866240739822388,0.0,0.12239664793014526,0.52050226926803589,0.81830871105194092,0.19401565194129944,0.0,1.0932763814926147,0.0012207078980281949,0.0,0.0,0.0,0.0,0.024941748380661009,0.039848464727401736,0.19937031745910644,0.30006647109985352,0.79831112921237946,1
21:08:11.812,1.5232324600219727,0.047900393605232239,-9.7525196075439453,0.02876213937997818,0.30013826489448547,-0.1227717250585556,-0.0093954242765903473,0.12866240739822388,0.0,0.12239664793014526,0.52050226926803589,0.81830871105194092,0.19401565194129944,0.0,1.0932763814926147,0.0012207078980281949,0.0,0.0,0.0,0.0,0.024941748380661009,0.039848464727401736,0.19937031745910644,0.30006647109985352,0.79831112921237946,1
21:08:11.870,1.5232324600219727,0.047900393605232239,-9.7525196075439453,0.02876213937997818,0.30013826489448547,-0.1227717250585556,-0.0093954242765903473,0.12866240739822388,0.0,0.12239664793014526,0.52050226926803589,0.81830871105194092,0.19401565194129944,0.0,1.0932763814926147,0.0012207078980281949,0.0,0.0,0.0,0.0,0.024941748380661009,0.039848464727401736,0.19937031745910644,0.30006647109985352,0.79831112921237946,1
21:08:11.913,1.5232324600219727,0.047900393605232239,-9.7525196075439453,0.02876213937997818,0.30013826489448547,-0.1227717250585556,-0.0093954242765903473,0.12866240739822388,0.0,0.12239664793014526,0.52050226926803589,0.81830871105194092,0.19401565194129944,0.0,1.0932763814926147,0.0012207078980281949,0.0,0.0,0.0,0.0,0.024941748380661009,0.039848464727401736,0.19937031745910644,0.30006647109985352,0.79831112921237946,1
21:08:11.987,1.5232324600219727,0.047900393605232239,-9.7525196075439453,0.02876213937997818,0.30013826489448547,-0.1227717250585556,-0.0093954242765903473,0.12866240739822388,0.0,0.12239664793014526,0.52050226926803589,0.81830871105194092,0.19401565194129944,0.0,1.0932763814926147,0.0012207078980281949,0.0,0.0,0.0,0.0,0.024941748380661009,0.039848464727401736,0.19937031745910644,0.30006647109985352,0.79831112921237946,1
21:08:12.018,2.165097713470459,-0.1149609386920929,-9.6950397491455078,-0.0085221156477928162,0.18935075402259827,0.05885586142539978,-0.0093954242765903473,0.20555335283279419,0.0,0.31852570176124573,0.002137849573045969,0.90858358144760132,0.3695949912071228,0.0,1.1844695806503296,0.0011107511818408966,0.0,0.0,0.0,0.0,0.024941748380661009,0.039848464727401736,0.19937031745910644,0.30006647109985352,0.79831112921237946,1
21:08:12.067,2.165097713470459,-0.1149609386920929,-9.6950397491455078,-0.0085221156477928162,0.18935075402259827,0.05885586142539978,-0.017832104116678238,0.20555335283279419,0.0,0.31852570176124573,0.002137849573045969,0.90858358144760132,0.3695949912071228,0.0,1.1844695806503296,0.0011107511818408966,0.0,0.0,0.0,0.0,0.024941748380661009,0.039848464727401736,0.19937031745910644,0.30006647109985352,0.79831112921237946,1
21:08:12.117,2.165097713470459,-0.1149609386920929,-9.6950397491455078,-0.0085221156477928162,0.18935075402259827,0.05885586142539978,-0.017832104116678238,0.20555335283279419,0.0,0.31852570176124573,0.002137849573045969,0.90858358144760132,0.3695949912071228,0.0,1.1844695806503296,0.0011107511818408966,0.0,0.0,0.0,0.0,0.024941748380661009,0.039848464727401736,0.19937031745910644,0.30006647109985352,0.79831112921237946,1
21:08:12.160,2.165097713470459,-0.1149609386920929,-9.6950397491455078,-0.0085221156477928162,0.18935075402259827,0.05885586142539978,-0.017832104116678238,0.20555335283279419,0.0,0.31852570176124573,0.002137849573045969,0.90858358144760132,0.3695949912071228,0.0,1.1844695806503296,0.0011107511818408966,0.0,0.0,0.0,0.0,0.024941748380661009,0.039848464727401736,0.19937031745910644,0.30006647109985352,0.79831112921237946,1
21:08:12.212,2.165097713470459,-0.1149609386920929,-9.6950397491455078,-0.0085221156477928162,0.18935075402259827,0.05885586142539978,-0.017832104116678238,0.20555335283279419,0.0,0.31852570176124573,0.002137849573045969,0.90858358144760132,0.3695949912071228,0.0,1.1844695806503296,0.0011107511818408966,0.0,0.0,0.0,0.0,0.024941748380661009,0.039848464727401736,0.19937031745910644,0.30006647109985352,0.79831112921237946,1
21:08:12.265,2.165097713470459,-0.1149609386920929,-9.6950397491455078,-0.0085221156477928162,0.18935075402259827,0.05885586142539978,-0.017832104116678238,0.20555335283279419,0.0,0.31852570176124573,0.002137849573045969,0.90858358144760132,0.3695949912071228,0.0,1.1844695806503296,0.0011107511818408966,0.0,0.0,0.0,0.0,0.024941748380661009,0.039848464727401736,0.19937031745910644,0.30006647109985352,0.79831112921237946,1
21:08:12.350,1.5519727468490601,0.38320314884185791,-11.084151268005371,-0.0085221156477928162,-0.60187441110610962,-0.054062172770500183,-0.017832104116678238,0.20708733797073364,0.0,0.57741087675094604,0.0029989809263497591,1.0268020629882812,0.25969952344894409,0.0,0.69736695289611816,0.0011107511818408966,0.0,0.0,0.0,0.0,0.024941748380661009,0.039848464727401736,0.19937031745910644,0.30006647109985352,0.79831112921237946,1
21:08:12.374,1.5519727468490601,0.38320314884185791,-11.084151268005371,-0.0085221156477928162,-0.60187441110610962,-0.054062172770500183,-0.035281483083963394,0.20708733797073364,0.0,0.57741087675094604,0.0029989809263497591,1.0268020629882812,0.25969952344894409,0.0,0.69736695289611816,0.0032502405811101198,0.0,0.0,0.0,0.0,0.024941748380661009,0.039848464727401736,0.19937031745910644,0.30006647109985352,0.79831112921237946,1
21:08:12.426,1.5519727468490601,0.38320314884185791,-11.084151268005371,-0.0085221156477928162,-0.60187441110610962,-0.054062172770500183,-0.035281483083963394,0.20708733797073364,0.0,0.57741087675094604,0.0029989809263497591,1.0268020629882812,0.25969952344894409,0.0,0.69736695289611816,0.0032502405811101198,0.0,0.0,9.0148022510380676e-17,9.0148022510380676e-17,0.024941748380661009,0.039848464727401736,0.19937031745910644,0.30006647109985352,0.79831112921237946,1
21:08:12.475,1.5519727468490601,0.38320314884185791,-11.084151268005371,-0.0085221156477928162,-0.60187441110610962,-0.054062172770500183,-0.035281483083963394,0.20708733797073364,0.0,0.57741087675094604,0.0029989809263497591,1.0268020629882812,0.25969952344894409,0.0,0.69736695289611816,0.0032502405811101198,0.0,0.0,9.0148022510380676e-17,9.0148022510380676e-17,0.024941748380661009,0.039848464727401736,0.19937031745910644,0.30006647109985352,0.79831112921237946,1
21:08:12.519,1.5519727468490601,0.38320314884185791,-11.084151268005371,-0.0085221156477928162,-0.60187441110610962,-0.054062172770500183,-0.035281483083963394,0.20708733797073364,0.0,0.57741087675094604,0.0029989809263497591,1.0268020629882812,0.25969952344894409,0.0,0.69736695289611816,0.0032502405811101198,0.0,0.0,9.0148022510380676e-17,9.0148022510380676e-17,0.024941748380661009,0.039848464727401736,0.19937031745910644,0.30006647109985352,0.79831112921237946,1
21:08:12.575,1.5519727468490601,0.38320314884185791,-11.084151268005371,-0.0085221156477928162,-0.60187441110610962,-0.054062172770500183,-0.035281483083963394,0.20708733797073364,0.0,0.57741087675094604,0.0029989809263497591,1.0268020629882812,0.25969952344894409,0.0,0.69736695289611816,0.0032502405811101198,0.0,0.0,9.0148022510380676e-17,9.0148022510380676e-17,0.024941748380661009,0.039848464727401736,0.19937031745910644,0.30006647109985352,0.79831112921237946,1
21:08:12.661,1.5519727468490601,0.38320314884185791,-11.084151268005371,-0.0085221156477928162,-0.60187441110610962,-0.054062172770500183,-0.035281483083963394,0.20708733797073364,0.0,0.57741087675094604,0.0029989809263497591,1.0268020629882812,0.25969952344894409,0.0,0.69736695289611816,0.0032502405811101198,0.0,0.0,9.0148022510380676e-17,9.0148022510380676e-17,0.024941748380661009,0.039848464727401736,0.19937031745910644,0.30006647109985352,0.79831112921237946,1
21:08:12.689,1.3603711128234863,0.28740236163139343,-9.8962211608886719,0.05885586142539978,0.02130528911948204,-0.032490566372871399,-0.035281483083963394,0.10833723098039627,0.0,0.61947810649871826,0.0041129039600491524,0.80577301979064941,0.41970157623291016,0.0,0.49350324273109436,0.0032502405811101198,0.0,0.0,9.0148022510380676e-17,9.0148022510380676e-17,0.024941748380661009,0.039848464727401736,0.19937031745910644,0.30006647109985352,0.79831112921237946,1
21:08:12.728,1.3603711128234863,0.28740236163139343,-9.8962211608886719,0.05885586142539978,0.02130528911948204,-0.032490566372871399,-0.025694195181131363,0.10833723098039627,0.0,0.61947810649871826,0.0041129039600491524,0.80577301979064941,0.41970157623291016,0.0,0.49350324273109436,0.0029338763561099768,0.0,0.0,9.0148022510380676e-17,9.0148022510380676e-17,0.024941748380661009,0.039848464727401736,0.19937031745910644,0.30006647109985352,0.79831112921237946,1
21:08:12.785,1.3603711128234863,0.28740236163139343,-9.8962211608886719,0.05885586142539978,0.02130528911948204,-0.032490566372871399,-0.025694195181131363,0.10833723098039627,0.0,0.61947810649871826,0.0041129039600491524,0.80577301979064941,0.41970157623291016,0.0,0.49350324273109436,0.0029338763561099768,0.0,0.0,9.0148022510380676e-17,9.0148022510380676e-17,0.024941748380661009,0.039848464727401736,0.19937031745910644,0.30006647109985352,0.79831112921237946,1
21:08:12.830,1.3603711128234863,0.28740236163139343,-9.8962211608886719,0.05885586142539978,0.02130528911948204,-0.032490566372871399,-0.025694195181131363,0.10833723098039627,0.0,0.61947810649871826,0.0041129039600491524,0.80577301979064941,0.41970157623291016,0.0,0.49350324273109436,0.0029338763561099768,0.0,0.0,9.0148022510380676e-17,9.0148022510380676e-17,0.024941748380661009,0.039848464727401736,0.19937031745910644,0.30006647109985352,0.79831112921237946,1
21:08:12.886,1.3603711128234863,0.28740236163139343,-9.8962211608886719,0.05885586142539978,0.02130528911948204,-0.032490566372871399,-0.025694195181131363,0.10833723098039627,0.0,0.61947810649871826,0.0041129039600491524,0.80577301979064941,0.41970157623291016,0.0,0.49350324273109436,0.0029338763561099768,0.0,0.0,9.0148022510380676e-17,9.0148022510380676e-17,0.024941748380661009,0.039848464727401736,0.19937031745910644,0.30006647109985352,0.79831112921237946,1
21:08:12.934,1.3603711128234863,0.28740236163139343,-9.8962211608886719,0.05885586142539978,0.02130528911948204,-0.032490566372871399,-0.025694195181131363,0.10833723098039627,0.0,0.61947810649871826,0.0041129039600491524,0.80577301979064941,0.41970157623291016,0.0,0.49350324273109436,0.0029338763561099768,0.0,0.0,9.0148022510380676e-17,9.0148022510380676e-17,0.024941748380661009,0.039848464727401736,0.19937031745910644,0.30006647109985352,0.79831112921237946,1
21:08:13.023,1.3603711128234863,0.22992187738418579,-9.8962211608886719,0.05326322466135025,-0.031691618263721466,0.011451592668890953,-0.025694195181131363,0.11332256346940994,0.0,0.81817489862442017,0.0041932552121579647,0.77004635334014893,0.37829992175102234,0.0,0.30997157096862793,0.0029338763561099768,0.032592549920082092,-7.4505805969238281e-08,9.0172202654046827e-17,0.032592549920167253,0.024941748380661009,0.039848464727401736,0.19937031745910644,0.30006647109985352,0.79831112921237946,1
21:08:13.052,1.5040723085403442,0.22992187738418579,-9.9058008193969727,0.05326322466135025,-0.031691618263721466,0.011451592668890953,-0.0067108315415680408,0.11332256346940994,0.0,0.81817489862442017,0.0041932552121579647,0.77004635334014893,0.37829992175102234,0.0,0.30997157096862793,0.0045690755359828472,0.032592549920082092,-7.4505805969238281e-08,9.0172202654046827e-17,0.032592549920167253,0.024941748380661009,0.039848464727401736,0.19937031745910644,0.30006647109985352,0.79831112921237946,1
21:08:13.104,1.5040723085403442,0.22992187738418579,-9.9058008193969727,0.05326322466135025,-0.031691618263721466,0.011451592668890953,-0.0067108315415680408,0.11332256346940994,0.0,0.81817489862442017,0.0041932552121579647,0.77004635334014893,0.37829992175102234,0.0,0.30997157096862793,0.0045690755359828472,0.032592549920082092,-7.4505805969238281e-08,9.0172202654046827e-17,0.032592549920167253,0.024941748380661009,0.039848464727401736,0.19937031745910644,0.30006647109985352,0.79831112921237946,1
21:08:13.150,1.5040723085403442,0.22992187738418579,-9.9058008193969727,0.05326322466135025,-0.031691618263721466,0.011451592668890953,-0.0067108315415680408,0.11332256346940994,0.0,0.81817489862442017,0.0041932552121579647,0.77004635334014893,0.37829992175102234,0.0,0.30997157096862793,0.0045690755359828472,0.032592549920082092,-7.4505805969238281e-08,9.0172202654046827e-17,0.032592549920167253,0.024941748380661009,0.039848464727401736,0.19937031745910644,0.30006647109985352,0.79831112921237946,1
21:08:13.194,1.5040723085403442,0.22992187738418579,-9.9058008193969727,0.05326322466135025,-0.031691618263721466,0.011451592668890953,-0.0067108315415680408,0.11332256346940994,0.0,0.81817489862442017,0.0041932552121579647,0.77004635334014893,0.37829992175102234,0.0,0.30997157096862793,0.0045690755359828472,0.032592549920082092,-7.4505805969238281e-08,9.0172202654046827e-17,0.032592549920167253,0.024941748380661009,0.039848464727401736,0.19937031745910644,0.30006647109985352,0.79831112921237946,1
21:08:13.248,1.5040723085403442,0.22992187738418579,-9.9058008193969727,0.05326322466135025,-0.031691618263721466,0.011451592668890953,-0.0067108315415680408,0.11332256346940994,0.0,0.81817489862442017,0.0041932552121579647,0.77004635334014893,0.37829992175102234,0.0,0.30997157096862793,0.0045690755359828472,0.032592549920082092,-7.4505805969238281e-08,9.0172202654046827e-17,0.032592549920167253,0.024941748380661009,0.039848464727401736,0.19937031745910644,0.30006647109985352,0.79831112921237946,1
21:08:13.309,1.5040723085403442,0.22992187738418579,-9.9058008193969727,0.05326322466135025,-0.031691618263721466,0.011451592668890953,-0.0067108315415680408,0.11332256346940994,0.0,0.81817489862442017,0.0041932552121579647,0.77004635334014893,0.37829992175102234,0.0,0.30997157096862793,0.0045690755359828472,0.032592549920082092,-7.4505805969238281e-08,9.0172202654046827e-17,0.032592549920167253,0.024941748380661009,0.039848464727401736,0.19937031745910644,0.30006647109985352,0.79831112921237946,1
21:08:13.354,1.5040723085403442,0.22992187738418579,-9.9058008193969727,0.11318434774875641,0.02876213937997818,0.041278999298810959,-0.0067108315415680408,0.080725498497486115,0.0,0.97300469875335693,0.0027236526366323233,1.4653421640396118,0.0,0.0,0.0,0.0045690755359828472,0.032592549920082092,-7.4505805969238281e-08,9.0172202654046827e-17,0.032592549920167253,0.024941748380661009,0.039848464727401736,0.19937031745910644,0.30006647109985352,0.79831112921237946,1
21:08:13.392,0.086220704019069672,0.55564457178115845,-11.438613891601562,0.11318434774875641,0.02876213937997818,0.041278999298810959,0.018791373819112778,0.080725498497486115,0.0,0.97300469875335693,0.0027236526366323233,1.4653421640396118,0.0,0.0,0.0,0.0028479928150773048,0.032592549920082092,-7.4505805969238281e-08,9.0172202654046827e-17,0.032592549920167253,0.024941748380661009,0.039848464727401736,0.19937031745910644,0.30006647109985352,0.79831112921237946,1
21:08:13.448,0.086220704019069672,0.55564457178115845,-11.438613891601562,0.11318434774875641,0.02876213937997818,0.041278999298810959,0.018791373819112778,0.080725498497486115,0.0,0.97300469875335693,0.0027236526366323233,1.4653421640396118,0.0,0.0,0.0,0.0028479928150773048,0.032592549920082092,-7.4505805969238281e-08,9.0172202654046827e-17,0.032592549920167253,0.024941748380661009,0.039848464727401736,0.19937031745910644,0.30006647109985352,0.79831112921237946,1
21:08:13.496,0.086220704019069672,0.55564457178115845,-11.438613891601562,0.11318434774875641,0.02876213937997818,0.041278999298810959,0.018791373819112778,0.080725498497486115,0.0,0.97300469875335693,0.0027236526366323233,1.4653421640396118,0.0,0.0,0.0,0.0028479928150773048,0.032592549920082092,-7.4505805969238281e-08,9.0172202654046827e-17,0.032592549920167253,0.024941748380661009,0.039848464727401736,0.19937031745910644,0.30006647109985352,0.79831112921237946,1
21:08:13.556,0.086220704019069672,0.55564457178115845,-11.438613891601562,0.11318434774875641,0.02876213937997818,0.041278999298810959,0.018791373819112778,0.080725498497486115,0.0,0.97300469875335693,0.0027236526366323233,1.4653421640396118,0.0,0.0,0.0,0.0028479928150773048,0.032592549920082092,-7.4505805969238281e-08,9.0172202654046827e-17,0.032592549920167253,0.024941748380661009,0.039848464727401736,0.19937031745910644,0.30006647109985352,0.79831112921237946,1
21:08:13.591,0.086220704019069672,0.55564457178115845,-11.438613891601562,0.11318434774875641,0.02876213937997818,0.041278999298810959,0.018791373819112778,0.080725498497486115,0.0,0.97300469875335693,0.0027236526366323233,1.4653421640396118,0.0,0.0,0.0,0.0028479928150773048,0.07407408207654953,-7.0554739828310176e-09,1.0249589014444156e-16,0.074074082076549863,0.024941748380661009,0.039848464727401736,0.19937031745910644,0.30006647109985352,0.79831112921237946,1
21:08:13.686,0.086220704019069672,0.55564457178115845,-11.438613891601562,-0.69774824380874634,0.19414444267749786,0.1528654545545578,0.018791373819112778,0.17333966493606567,0.0,0.97300469875335693,0.0027236526366323233,0.0,0.15373703837394714,0.0,0.0,0.0028479928150773048,0.07407408207654953,-7.0554739828310176e-09,1.0249589014444156e-16,0.074074082076549863,0.024941748380661009,0.039848464727401736,0.19937031745910644,0.30006647109985352,0.79831112921237946,1
21:08:13.710,0.97716802358627319,-0.75682622194290161,-8.1718072891235352,-0.69774824380874634,0.19414444267749786,0.1528654545545578,0.049279388040304184,0.17333966493606567,0.048875655978918076,0.081294715404510498,0.0043542631901800632,0.0,0.15373703837394714,0.9973483681678772,0.0,0.0009737072978168726,0.07407408207654953,-7.0554739828310176e-09,1.0249589014444156e-16,0.074074082076549863,0.024941748380661009,0.039848464727401736,0.19937031745910644,0.30006647109985352,0.79831112921237946,1
21:08:13.759,0.97716802358627319,-0.75682622194290161,-8.1718072891235352,-0.69774824380874634,0.19414444267749786,0.1528654545545578,0.049279388040304184,0.17333966493606567,0.048875655978918076,0.081294715404510498,0.0043542631901800632,0.0,0.15373703837394714,0.9973483681678772,0.0,0.0009737072978168726,0.07407408207654953,-7.0554739828310176e-09,1.0249589014444156e-16,0.074074082076549863,0.024941748380661009,0.039848464727401736,0.19937031745910644,0.30006647109985352,0.79831112921237946,1
21:08:13.809,0.97716802358627319,-0.75682622194290161,-8.1718072891235352,-0.69774824380874634,0.19414444267749786,0.1528654545545578,0.049279388040304184,0.17333966493606567,0.048875655978918076,0.081294715404510498,0.0043542631901800632,0.0,0.15373703837394714,0.9973483681678772,0.0,0.0009737072978168726,0.07407408207654953,-7.0554739828310176e-09,1.0249589014444156e-16,0.074074082076549863,0.024941748380661009,0.039848464727401736,0.19937031745910644,0.30006647109985352,0.79831112921237946,1
21:08:13.869,0.97716802358627319,-0.75682622194290161,-8.1718072891235352,-0.69774824380874634,0.19414444267749786,0.1528654545545578,0.049279388040304184,0.17333966493606567,0.048875655978918076,0.081294715404510498,0.0043542631901800632,0.0,0.15373703837394714,0.9973483681678772,0.0,0.0009737072978168726,0.07407408207654953,-7.0554739828310176e-09,1.0249589014444156e-16,0.074074082076549863,0.024941748380661009,0.039848464727401736,0.19937031745910644,0.30006647109985352,0.79831112921237946,1
21:08:13.907,0.97716802358627319,-0.75682622194290161,-8.1718072891235352,-0.69774824380874634,0.19414444267749786,0.1528654545545578,0.049279388040304184,0.17333966493606567,0.048875655978918076,0.081294715404510498,0.0043542631901800632,0.0,0.15373703837394714,0.9973483681678772,0.0,0.0009737072978168726,0.07407408207654953,-7.0554739828310176e-09,1.0249589014444156e-16,0.074074082076549863,0.024941748380661009,0.039848464727401736,0.19937031745910644,0.30006647109985352,0.79831112921237946,1
21:08:13.958,0.97716802358627319,-0.75682622194290161,-8.1718072891235352,-0.69774824380874634,0.19414444267749786,0.1528654545545578,0.049279388040304184,0.17333966493606567,0.048875655978918076,0.081294715404510498,0.0043542631901800632,0.0,0.15373703837394714,0.9973483681678772,0.0,0.0009737072978168726,0.07407408207654953,-7.0554739828310176e-09,1.0249589014444156e-16,0.074074082076549863,0.024941748380661009,0.039848464727401736,0.19937031745910644,0.30006647109985352,0.79831112921237946,1
21:08:14.031,0.97716802358627319,-0.75682622194290161,-8.1718072891235352,-0.26205506920814514,0.13768543303012848,1.0250507593154907,0.049279388040304184,0.13153868913650513,0.0,0.0,0.011611015535891056,0.0,0.46022903919219971,0.9973483681678772,1.2531949281692505,0.0009737072978168726,0.07407408207654953,-7.0554739828310176e-09,1.0249589014444156e-16,0.074074082076549863,0.024941748380661009,0.039848464727401736,0.19937031745910644,0.30006647109985352,0.79831112921237946,1
21:08:14.060,0.038320314139127731,0.4885840117931366,-11.35239315032959,-0.26205506920814514,0.13768543303012848,1.0250507593154907,-0.17161399126052856,0.13153868913650513,0.0,0.0,0.011611015535891056,0.0,0.46022903919219971,0.062239423394203186,1.2531949281692505,0.0009737072978168726,0.07407408207654953,-7.0554739828310176e-09,1.0249589014444156e-16,0.074074082076549863,0.024941748380661009,0.039848464727401736,0.19937031745910644,0.30006647109985352,0.79831112921237946,0
21:08:14.114,0.038320314139127731,0.4885840117931366,-11.35239315032959,-0.26205506920814514,0.13768543303012848,1.0250507593154907,-0.17161399126052856,0.13153868913650513,0.0,0.0,0.011611015535891056,0.0,0.46022903919219971,0.062239423394203186,1.2531949281692505,0.0009737072978168726,0.074074052274227142,-1.4110947965662035e-08,1.0249589014444156e-16,0.074074052274228488,0.024941748380661009,0.039848464727401736,0.19937031745910644,0.30006647109985352,0.79831112921237946,0
21:08:14.161,0.038320314139127731,0.4885840117931366,-11.35239315032959,-0.26205506920814514,0.13768543303012848,1.0250507593154907,-0.17161399126052856,0.13153868913650513,0.0,0.0,0.011611015535891056,0.0,0.46022903919219971,0.062239423394203186,1.2531949281692505,0.0009737072978168726,0.074074052274227142,-1.4110947965662035e-08,1.0249589014444156e-16,0.074074052274228488,0.024941748380661009,0.039848464727401736,0.19937031745910644,0.30006647109985352,0.79831112921237946,0
21:08:14.214,0.038320314139127731,0.4885840117931366,-11.35239315032959,-0.26205506920814514,0.13768543303012848,1.0250507593154907,-0.17161399126052856,0.13153868913650513,0.0,0.0,0.011611015535891056,0.0,0.46022903919219971,0.062239423394203186,1.2531949281692505,0.0009737072978168726,0.074074052274227142,-1.4110947965662035e-08,1.0249589014444156e-16,0.074074052274228488,0.024941748380661009,0.039848464727401736,0.19937031745910644,0.30006647109985352,0.79831112921237946,0
21:08:14.258,0.038320314139127731,0.4885840117931366,-11.35239315032959,-0.26205506920814514,0.13768543303012848,1.0250507593154907,-0.17161399126052856,0.13153868913650513,0.0,0.0,0.011611015535891056,0.0,0.46022903919219971,0.062239423394203186,1.2531949281692505,0.0009737072978168726,0.074074052274227142,-1.4110947965662035e-08,1.0249589014444156e-16,0.074074052274228488,0.024941748380661009,0.039848464727401736,0.19937031745910644,0.30006647109985352,0.79831112921237946,0
21:08:14.348,0.038320314139127731,0.4885840117931366,-11.35239315032959,-0.26205506920814514,0.13768543303012848,1.0250507593154907,-0.17161399126052856,0.13153868913650513,0.0,0.0,0.011611015535891056,0.0,0.46022903919219971,0.062239423394203186,1.2531949281692505,0.0009737072978168726,0.074074052274227142,-1.4110947965662035e-08,1.0249589014444156e-16,0.074074052274228488,0.024941748380661009,0.039848464727401736,0.19937031745910644,0.30006647109985352,0.79831112921237946,0
21:08:14.369,0.95800787210464478,-3.1518459320068359,-10.432705879211426,0.60187441110610962,-0.95394432544708252,-0.93290537595748901,0.021475967019796371,0.13460665941238403,0.0,0.0,0.003473885590210557,0.0,0.11568382382392883,2.8543720245361328,0.0,0.66761493682861328,0.074074052274227142,-1.4110947965662035e-08,1.0249589014444156e-16,0.074074052274228488,0.024941748380661009,0.039848464727401736,0.19937031745910644,0.30006647109985352,0.79831112921237946,1
21:08:14.426,0.95800787210464478,-3.1518459320068359,-10.432705879211426,0.60187441110610962,-0.95394432544708252,-0.93290537595748901,0.021475967019796371,0.13460665941238403,0.0,0.0,0.003473885590210557,0.0,0.11568382382392883,2.8543720245361328,0.0,0.66761493682861328,0.074074052274227142,-1.4110947965662035e-08,1.0249589014444156e-16,0.074074052274228488,0.024941748380661009,0.039848464727401736,0.19937031745910644,0.30006647109985352,0.79831112921237946,1
21:08:14.466,0.95800787210464478,-3.1518459320068359,-10.432705879211426,0.60187441110610962,-0.95394432544708252,-0.93290537595748901,0.021475967019796371,0.13460665941238403,0.0,0.0,0.003473885590210557,0.0,0.11568382382392883,2.8543720245361328,0.0,0.66761493682861328,0.074074052274227142,-1.4110947965662035e-08,1.0249589014444156e-16,0.074074052274228488,0.024941748380661009,0.039848464727401736,0.19937031745910644,0.30006647109985352,0.79831112921237946,1
21:08:14.519,0.95800787210464478,-3.1518459320068359,-10.432705879211426,0.60187441110610962,-0.95394432544708252,-0.93290537595748901,0.021475967019796371,0.13460665941238403,0.0,0.0,0.003473885590210557,0.0,0.11568382382392883,2.8543720245361328,0.0,0.66761493682861328,0.074074052274227142,-1.4110947965662035e-08,1.0249589014444156e-16,0.074074052274228488,0.024941748380661009,0.039848464727401736,0.19937031745910644,0.30006647109985352,0.79831112921237946,1
21:08:14.576,0.95800787210464478,-3.1518459320068359,-10.432705879211426,0.60187441110610962,-0.95394432544708252,-0.93290537595748901,0.021475967019796371,0.13460665941238403,0.0,0.0,0.003473885590210557,0.0,0.11568382382392883,2.8543720245361328,0.0,0.66761493682861328,0.074074052274227142,-1.4110947965662035e-08,1.0249589014444156e-16,0.074074052274228488,0.024941748380661009,0.039848464727401736,0.19937031745910644,0.30006647109985352,0.79831112921237946,1
21:08:14.624,0.95800787210464478,-3.1518459320068359,-10.432705879211426,0.60187441110610962,-0.95394432544708252,-0.93290537595748901,0.021475967019796371,0.13460665941238403,0.0,0.0,0.003473885590210557,0.0,0.11568382382392883,2.8543720245361328,0.0,0.66761493682861328,0.074074052274227142,-1.4110947965662035e-08,1.0249589014444156e-16,0.074074052274228488,0.024941748380661009,0.039848464727401736,0.19937031745910644,0.30006647109985352,0.79831112921237946,1
21:08:14.693,0.95800787210464478,-3.1518459320068359,-10.432705879211426,-0.64421868324279785,0.65007764101028442,-0.93290537595748901,0.021475967019796371,0.091463394463062286,0.0,0.0,0.003473885590210557,0.0,0.041451796889305115,2.8543720245361328,0.0,0.66761493682861328,0.074074067175388336,-7.0554739828310176e-09,1.0249589014444156e-16,0.074074067175388669,0.024941748380661009,0.039848464727401736,0.19937031745910644,0.30006647109985352,0.79831112921237946,1
21:08:14.722,1.0346485376358032,-2.1363575458526611,-8.4783697128295898,-0.64421868324279785,0.65007764101028442,-0.30413299798965454,0.042376216500997543,0.091463394463062286,0.0,0.0,0.0076656476594507694,0.0,0.041451796889305115,2.0712878704071045,0.0,0.152963787317276,0.074074067175388336,-7.0554739828310176e-09,1.0249589014444156e-16,0.074074067175388669,0.024941748380661009,0.039848464727401736,0.19937031745910644,0.30006647109985352,0.79831112921237946,1
21:08:14.774,1.0346485376358032,-2.1363575458526611,-8.4783697128295898,-0.64421868324279785,0.65007764101028442,-0.30413299798965454,0.042376216500997543,0.091463394463062286,0.0,0.0,0.0076656476594507694,0.0,0.041451796889305115,2.0712878704071045,0.0,0.152963787317276,0.074074067175388336,-7.0554739828310176e-09,1.0249589014444156e-16,0.074074067175388669,0.024941748380661009,0.039848464727401736,0.19937031745910644,0.30006647109985352,0.79831112921237946,1
21:08:14.824,1.0346485376358032,-2.1363575458526611,-8.4783697128295898,-0.64421868324279785,0.65007764101028442,-0.30413299798965454,0.042376216500997543,0.091463394463062286,0.0,0.0,0.0076656476594507694,0.0,0.041451796889305115,2.0712878704071045,0.0,0.152963787317276,0.074074067175388336,-7.0554739828310176e-09,1.0249589014444156e-16,0.074074067175388669,0.024941748380661009,0.039848464727401736,0.19937031745910644,0.30006647109985352,0.79831112921237946,1
21:08:14.869,1.0346485376358032,-2.1363575458526611,-8.4783697128295898,-0.64421868324279785,0.65007764101028442,-0.30413299798965454,0.042376216500997543,0.091463394463062286,0.0,0.0,0.0076656476594507694,0.0,0.041451796889305115,2.0712878704071045,0.0,0.152963787317276,0.074074067175388336,-7.0554739828310176e-09,1.0249589014444156e-16,0.074074067175388669,0.024941748380661009,0.039848464727401736,0.19937031745910644,0.30006647109985352,0.79831112921237946,1
21:08:14.921,1.0346485376358032,-2.1363575458526611,-8.4783697128295898,-0.64421868324279785,0.65007764101028442,-0.30413299798965454,0.042376216500997543,0.091463394463062286,0.0,0.0,0.0076656476594507694,0.0,0.041451796889305115,2.0712878704071045,0.0,0.152963787317276,0.074074067175388336,-7.0554739828310176e-09,1.0249589014444156e-16,0.074074067175388669,0.024941748380661009,0.039848464727401736,0.19937031745910644,0.30006647109985352,0.79831112921237946,1
21:08:14.974,1.0346485376358032,-2.1363575458526611,-8.4783697128295898,-0.64421868324279785,0.65007764101028442,-0.30413299798965454,0.042376216500997543,0.091463394463062286,0.0,0.0,0.0076656476594507694,0.0,0.041451796889305115,2.0712878704071045,0.0,0.152963787317276,0.074074067175388336,-7.0554739828310176e-09,1.0249589014444156e-16,0.074074067175388669,0.024941748380661009,0.039848464727401736,0.19937031745910644,0.30006647109985352,0.79831112921237946,1
21:08:15.037,1.0346485376358032,-2.883603572845459,-8.4783697128295898,-0.41784998774528503,0.13795174658298492,0.49561429023742676,0.042376216500997543,0.045827213674783707,0.0,0.0,0.01668386347591877,0.0,0.1378517746925354,2.0712878704071045,2.0505969524383545,0.152963787317276,0.074074067175388336,-7.0554739828310176e-09,1.0249589014444156e-16,0.074074067175388669,0.024941748380661009,0.039848464727401736,0.19937031745910644,0.30006647109985352,0.79831112921237946,1
21:08:15.073,2.5578808784484863,-2.883603572845459,-9.3022565841674805,-0.41784998774528503,0.13795174658298492,0.49561429023742676,-0.10737831145524979,0.045827213674783707,0.0,0.0,0.01668386347591877,0.0,0.1378517746925354,0.2382981926202774,2.0505969524383545,0.13229188323020935,0.074074067175388336,-7.0554739828310176e-09,1.0249589014444156e-16,0.074074067175388669,0.024941748380661009,0.039848464727401736,0.19937031745910644,0.30006647109985352,0.79831112921237946,1
21:08:15.122,2.5578808784484863,-2.883603572845459,-9.3022565841674805,-0.41784998774528503,0.13795174658298492,0.49561429023742676,-0.10737831145524979,0.045827213674783707,0.0,0.0,0.01668386347591877,0.0,0.1378517746925354,0.2382981926202774,2.0505969524383545,0.13229188323020935,0.074074067175388336,-7.0554739828310176e-09,1.0249589014444156e-16,0.074074067175388669,0.024941748380661009,0.039848464727401736,0.19937031745910644,0.30006647109985352,0.79831112921237946,1
21:08:15.172,2.5578808784484863,-2.883603572845459,-9.3022565841674805,-0.41784998774528503,0.13795174658298492,0.49561429023742676,-0.10737831145524979,0.045827213674783707,0.0,0.0,0.01668386347591877,0.0,0.1378517746925354,0.2382981926202774,2.0505969524383545,0.13229188323020935,0.074074096977710724,7.0554739828310176e-09,1.0249589014444156e-16,0.074074096977711057,0.024941748380661009,0.039848464727401736,0.19937031745910644,0.30006647109985352,0.79831112921237946,1
21:08:15.222,2.5578808784484863,-2.883603572845459,-9.3022565841674805,-0.41784998774528503,0.13795174658298492,0.49561429023742676,-0.10737831145524979,0.045827213674783707,0.0,0.0,0.01668386347591877,0.0,0.1378517746925354,0.2382981926202774,2.0505969524383545,0.13229188323020935,0.074074096977710724,7.0554739828310176e-09,1.0249589014444156e-16,0.074074096977711057,0.024941748380661009,0.039848464727401736,0.19937031745910644,0.30006647109985352,0.79831112921237946,1
21:08:15.277,2.5578808784484863,-2.883603572845459,-9.3022565841674805,-0.41784998774528503,0.13795174658298492,0.49561429023742676,-0.10737831145524979,0.045827213674783707,0.0,0.0,0.01668386347591877,0.0,0.1378517746925354,0.2382981926202774,2.0505969524383545,0.13229188323020935,0.074074096977710724,7.0554739828310176e-09,1.0249589014444156e-16,0.074074096977711057,0.024941748380661009,0.039848464727401736,0.19937031745910644,0.30006647109985352,0.79831112921237946,1
21:08:15.341,2.5578808784484863,-2.883603572845459,-9.3022565841674805,-0.41784998774528503,0.13795174658298492,0.49561429023742676,-0.10737831145524979,0.045827213674783707,0.0,0.0,0.01668386347591877,0.0,0.1378517746925354,0.2382981926202774,2.0505969524383545,0.13229188323020935,0.074074096977710724,7.0554739828310176e-09,1.0249589014444156e-16,0.074074096977711057,0.024941748380661009,0.039848464727401736,0.19937031745910644,0.30006647109985352,0.79831112921237946,1
21:08:15.374,2.5578808784484863,-2.883603572845459,-9.3022565841674805,0.84022736549377441,-0.32330775260925293,-0.073769561946392059,-0.10737831145524979,0.075164623558521271,0.0,0.0,0.0017504562856629491,0.25891959667205811,0.13445599377155304,0.2382981926202774,0.0,0.13229188323020935,0.074074096977710724,7.0554739828310176e-09,1.0249589014444156e-16,0.074074096977711057,0.024941748380661009,0.039848464727401736,0.19937031745910644,0.30006647109985352,0.79831112921237946,1
21:08:15.423,1.5998730659484863,-1.8202148675918579,-9.580078125,0.84022736549377441,-0.32330775260925293,-0.073769561946392059,-0.0070946854539215565,0.075164623558521271,0.0,0.0,0.0017504562856629491,0.25891959667205811,0.13445599377155304,1.8010686635971069,0.0,0.94168168306350708,0.074074096977710724,7.0554739828310176e-09,1.0249589014444156e-16,0.074074096977711057,0.024941748380661009,0.039848464727401736,0.19937031745910644,0.30006647109985352,0.79831112921237946,1
21:08:15.472,1.5998730659484863,-1.8202148675918579,-9.580078125,0.84022736549377441,-0.32330775260925293,-0.073769561946392059,-0.0070946854539215565,0.075164623558521271,0.0,0.0,0.0017504562856629491,0.25891959667205811,0.13445599377155304,1.8010686635971069,0.0,0.94168168306350708,0.074074096977710724,7.0554739828310176e-09,1.0249589014444156e-16,0.074074096977711057,0.024941748380661009,0.039848464727401736,0.19937031745910644,0.30006647109985352,0.79831112921237946,1
21:08:15.519,1.5998730659484863,-1.8202148675918579,-9.580078125,0.84022736549377441,-0.32330775260925293,-0.073769561946392059,-0.0070946854539215565,0.075164623558521271,0.0,0.0,0.0017504562856629491,0.25891959667205811,0.13445599377155304,1.8010686635971069,0.0,0.94168168306350708,0.074074096977710724,7.0554739828310176e-09,1.0249589014444156e-16,0.074074096977711057,0.024941748380661009,0.039848464727401736,0.19937031745910644,0.30006647109985352,0.79831112921237946,1
21:08:15.578,1.5998730659484863,-1.8202148675918579,-9.580078125,0.84022736549377441,-0.32330775260925293,-0.073769561946392059,-0.0070946854539215565,0.075164623558521271,0.0,0.0,0.0017504562856629491,0.25891959667205811,0.13445599377155304,1.8010686635971069,0.0,0.94168168306350708,0.074074096977710724,7.0554739828310176e-09,1.0249589014444156e-16,0.074074096977711057,0.024941748380661009,0.039848464727401736,0.19937031745910644,0.30006647109985352,0.79831112921237946,1
21:08:15.620,1.5998730659484863,-1.8202148675918579,-9.580078125,0.84022736549377441,-0.32330775260925293,-0.073769561946392059,-0.0070946854539215565,0.075164623558521271,0.0,0.0,0.0017504562856629491,0.25891959667205811,0.13445599377155304,1.8010686635971069,0.0,0.94168168306350708,0.074074096977710724,7.0554739828310176e-09,1.0249589014444156e-16,0.074074096977711057,0.024941748380661009,0.039848464727401736,0.19937031745910644,0.30006647109985352,0.79831112921237946,1
21:08:15.706,1.5998730659484863,-1.8202148675918579,-9.580078125,-0.051665324717760086,-0.20213392376899719,-0.073769561946392059,-0.0070946854539215565,0.076698608696460724,0.0,0.0,0.0017504562856629491,0.69626599550247192,0.20224444568157196,1.8010686635971069,0.0,0.94168168306350708,0.074074037373065948,0.002262563444674015,1.0249589014444156e-16,0.074108583889368349,0.024941748380661009,0.039848464727401736,0.19937031745910644,0.30006647109985352,0.79831112921237946,1
21:08:15.729,2.165097713470459,0.028740234673023224,-11.35239315032959,-0.051665324717760086,-0.20213392376899719,0.41199102997779846,0.012080367654561996,0.076698608696460724,0.0,0.26718464493751526,0.0,0.69626599550247192,0.20224444568157196,1.618263840675354,0.0,0.0,0.074074037373065948,0.002262563444674015,1.0249589014444156e-16,0.074108583889368349,0.024941748380661009,0.039848464727401736,0.19937031745910644,0.30006647109985352,0.79831112921237946,1
21:08:15.781,2.165097713470459,0.028740234673023224,-11.35239315032959,-0.051665324717760086,-0.20213392376899719,0.41199102997779846,0.012080367654561996,0.076698608696460724,0.0,0.26718464493751526,0.0,0.69626599550247192,0.20224444568157196,1.618263840675354,0.0,0.0,0.074074037373065948,0.002262563444674015,1.0249589014444156e-16,0.074108583889368349,0.024941748380661009,0.039848464727401736,0.19937031745910644,0.30006647109985352,0.79831112921237946,1
21:08:15.826,2.165097713470459,0.028740234673023224,-11.35239315032959,-0.051665324717760086,-0.20213392376899719,0.41199102997779846,0.012080367654561996,0.076698608696460724,0.0,0.26718464493751526,0.0,0.69626599550247192,0.20224444568157196,1.618263840675354,0.0,0.0,0.074074037373065948,0.002262563444674015,1.0249589014444156e-16,0.074108583889368349,0.024941748380661009,0.039848464727401736,0.19937031745910644,0.30006647109985352,0.79831112921237946,1
21:08:15.877,2.165097713470459,0.028740234673023224,-11.35239315032959,-0.051665324717760086,-0.20213392376899719,0.41199102997779846,0.012080367654561996,0.076698608696460724,0.0,0.26718464493751526,0.0,0.69626599550247192,0.20224444568157196,1.618263840675354,0.0,0.0,0.074074037373065948,0.002262563444674015,1.0249589014444156e-16,0.074108583889368349,0.024941748380661009,0.039848464727401736,0.19937031745910644,0.30006647109985352,0.79831112921237946,1
21:08:15.926,2.165097713470459,0.028740234673023224,-11.35239315032959,-0.051665324717760086,-0.20213392376899719,0.41199102997779846,0.012080367654561996,0.076698608696460724,0.0,0.26718464493751526,0.0,0.69626599550247192,0.20224444568157196,1.618263840675354,0.0,0.0,0.074074037373065948,0.002262563444674015,1.0249589014444156e-16,0.074108583889368349,0.024941748380661009,0.039848464727401736,0.19937031745910644,0.30006647109985352,0.79831112921237946,1
21:08:15.982,2.165097713470459,0.028740234673023224,-11.35239315032959,-0.051665324717760086,-0.20213392376899719,0.41199102997779846,0.012080367654561996,0.076698608696460724,0.0,0.26718464493751526,0.0,0.69626599550247192,0.20224444568157196,1.618263840675354,0.0,0.0,0.074074037373065948,0.002262563444674015,1.0249589014444156e-16,0.074108583889368349,0.024941748380661009,0.039848464727401736,0.19937031745910644,0.30006647109985352,0.79831112921237946,1
21:08:16.050,2.165097713470459,0.028740234673023224,-11.35239315032959,0.05752427875995636,0.027963191270828247,0.33848777413368225,0.012080367654561996,0.020516697317361832,0.0,0.26718464493751526,0.0,0.0,0.28698909282684326,1.618263840675354,1.7646805047988892,0.0,0.074074037373065948,0.002262563444674015,1.0249589014444156e-16,0.074108583889368349,0.024941748380661009,0.039848464727401736,0.19937031745910644,0.30006647109985352,0.79831112921237946,1
21:08:16.079,-3.611689567565918,0.42152345180511475,-16.631015777587891,0.05752427875995636,0.027963191270828247,0.33848777413368225,-0.089737720787525177,0.020516697317361832,0.0,0.0,0.015811093151569366,0.0,0.28698909282684326,0.8626708984375,1.7646805047988892,0.00080983940279111266,0.074074037373065948,0.002262563444674015,1.0249589014444156e-16,0.074108583889368349,0.024941748380661009,0.039848464727401736,0.19937031745910644,0.30006647109985352,0.79831112921237946,1
21:08:16.129,-3.611689567565918,0.42152345180511475,-16.631015777587891,0.05752427875995636,0.027963191270828247,0.33848777413368225,-0.089737720787525177,0.020516697317361832,0.0,0.0,0.015811093151569366,0.0,0.28698909282684326,0.8626708984375,1.7646805047988892,0.00080983940279111266,0.074074037373065948,0.002262563444674015,1.0249589014444156e-16,0.074108583889368349,0.024941748380661009,0.039848464727401736,0.19937031745910644,0.30006647109985352,0.79831112921237946,1
21:08:16.183,-3.611689567565918,0.42152345180511475,-16.631015777587891,0.05752427875995636,0.027963191270828247,0.33848777413368225,-0.089737720787525177,0.020516697317361832,0.0,0.0,0.015811093151569366,0.0,0.28698909282684326,0.8626708984375,1.7646805047988892,0.00080983940279111266,0.074074037373065948,0.002262563444674015,1.0249589014444156e-16,0.074108583889368349,0.024941748380661009,0.039848464727401736,0.19937031745910644,0.30006647109985352,0.79831112921237946,1
21:08:16.225,-3.611689567565918,0.42152345180511475,-16.631015777587891,0.05752427875995636,0.027963191270828247,0.33848777413368225,-0.089737720787525177,0.020516697317361832,0.0,0.0,0.015811093151569366,0.0,0.28698909282684326,0.8626708984375,1.7646805047988892,0.00080983940279111266,0.074074126780033112,0.0047463374212384224,1.0249589014444156e-16,0.074226033014978418,0.024941748380661009,0.039848464727401736,0.19937031745910644,0.30006647109985352,0.79831112921237946,1
21:08:16.280,-3.611689567565918,0.42152345180511475,-16.631015777587891,0.05752427875995636,0.027963191270828247,0.33848777413368225,-0.089737720787525177,0.020516697317361832,0.0,0.0,0.015811093151569366,0.0,0.28698909282684326,0.8626708984375,1.7646805047988892,0.00080983940279111266,0.074074126780033112,0.0047463374212384224,1.0249589014444156e-16,0.074226033014978418,0.024941748380661009,0.039848464727401736,0.19937031745910644,0.30006647109985352,0.79831112921237946,1
21:08:16.358,-3.611689567565918,0.42152345180511475,-16.631015777587891,0.05752427875995636,0.027963191270828247,0.33848777413368225,-0.089737720787525177,0.020516697317361832,0.0,0.0,0.015811093151569366,0.0,0.28698909282684326,0.8626708984375,1.7646805047988892,0.00080983940279111266,0.074074126780033112,0.0047463374212384224,1.0249589014444156e-16,0.074226033014978418,0.024941748380661009,0.039848464727401736,0.19937031745910644,0.30006647109985352,0.79831112921237946,1
21:08:16.387,-3.611689567565918,-0.36404299736022949,-16.631015777587891,0.22184132039546967,-0.025832662358880043,0.011451592668890953,-0.089737720787525177,0.052922073751688004,0.0,0.0,0.30461397767066956,0.26288747787475586,0.07352370023727417,0.8626708984375,0.12265954911708832,0.00080983940279111266,0.074074126780033112,0.0047463374212384224,1.0249589014444156e-16,0.074226033014978418,0.024941748380661009,0.039848464727401736,0.19937031745910644,0.30006647109985352,0.79831112921237946,1
21:08:16.440,-1.9830762147903442,-0.36404299736022949,-16.535215377807617,0.22184132039546967,-0.025832662358880043,0.011451592668890953,-0.047169510275125504,0.052922073751688004,0.0,0.0,0.30461397767066956,0.26288747787475586,0.07352370023727417,0.23463258147239685,0.12265954911708832,0.28477701544761658,0.074074126780033112,0.0047463374212384224,1.0249589014444156e-16,0.074226033014978418,0.024941748380661009,0.039848464727401736,0.19937031745910644,0.30006647109985352,0.79831112921237946,1
21:08:16.486,-1.9830762147903442,-0.36404299736022949,-16.535215377807617,0.22184132039546967,-0.025832662358880043,0.011451592668890953,-0.047169510275125504,0.052922073751688004,0.0,0.0,0.30461397767066956,0.26288747787475586,0.07352370023727417,0.23463258147239685,0.12265954911708832,0.28477701544761658,0.074074126780033112,0.0047463374212384224,1.0249589014444156e-16,0.074226033014978418,0.024941748380661009,0.039848464727401736,0.19937031745910644,0.30006647109985352,0.79831112921237946,1
21:08:16.530,-1.9830762147903442,-0.36404299736022949,-16.535215377807617,0.22184132039546967,-0.025832662358880043,0.011451592668890953,-0.047169510275125504,0.052922073751688004,0.0,0.0,0.30461397767066956,0.26288747787475586,0.07352370023727417,0.23463258147239685,0.12265954911708832,0.28477701544761658,0.074074126780033112,0.0047463374212384224,1.0249589014444156e-16,0.074226033014978418,0.024941748380661009,0.039848464727401736,0.19937031745910644,0.30006647109985352,0.79831112921237946,1
21:08:16.585,-1.9830762147903442,-0.36404299736022949,-16.535215377807617,0.22184132039546967,-0.025832662358880043,0.011451592668890953,-0.047169510275125504,0.052922073751688004,0.0,0.0,0.30461397767066956,0.26288747787475586,0.07352370023727417,0.23463258147239685,0.12265954911708832,0.28477701544761658,0.074074126780033112,0.0047463374212384224,1.0249589014444156e-16,0.074226033014978418,0.024941748380661009,0.039848464727401736,0.19937031745910644,0.30006647109985352,0.79831112921237946,1
21:08:16.625,-1.9830762147903442,-0.36404299736022949,-16.535215377807617,0.22184132039546967,-0.025832662358880043,0.011451592668890953,-0.047169510275125504,0.052922073751688004,0.0,0.0,0.30461397767066956,0.26288747787475586,0.07352370023727417,0.23463258147239685,0.12265954911708832,0.28477701544761658,0.074074126780033112,0.0047463374212384224,1.0249589014444156e-16,0.074226033014978418,0.024941748380661009,0.039848464727401736,0.19937031745910644,0.30006647109985352,0.79831112921237946,1
21:08:16.700,-1.9830762147903442,-0.36404299736022949,-16.535215377807617,0.22184132039546967,-0.025832662358880043,0.011451592668890953,-0.047169510275125504,0.052922073751688004,0.0,0.0,0.30461397767066956,0.26288747787475586,0.07352370023727417,0.23463258147239685,0.12265954911708832,0.28477701544761658,0.074074126780033112,0.0047463374212384224,1.0249589014444156e-16,0.074226033014978418,0.024941748380661009,0.039848464727401736,0.19937031745910644,0.30006647109985352,0.79831112921237946,1
21:08:16.736,-0.13412110507488251,1.1591894626617432,-9.4459571838378906,-0.1438107043504715,-0.083356946706771851,0.13635385036468506,-0.004601780790835619,0.077849216759204865,0.42804330587387085,0.77473348379135132,0.11700764298439026,0.85454660654067993,0.0,0.0,0.0,0.0029338763561099768,0.074074126780033112,0.0047463374212384224,1.0249589014444156e-16,0.074226033014978418,0.024941748380661009,0.039848464727401736,0.19937031745910644,0.30006647109985352,0.79831112921237946,1
21:08:16.787,-0.13412110507488251,1.1591894626617432,-9.4459571838378906,-0.1438107043504715,-0.083356946706771851,0.13635385036468506,-0.004601780790835619,0.077849216759204865,0.42804330587387085,0.77473348379135132,0.11700764298439026,0.85454660654067993,0.0,0.0,0.0,0.0029338763561099768,0.074074067175388336,0.0049674208275973797,1.0249589014444156e-16,0.074240438425310987,0.024941748380661009,0.039848464727401736,0.19937031745910644,0.30006647109985352,0.79831112921237946,1
21:08:16.832,-0.13412110507488251,1.1591894626617432,-9.4459571838378906,-0.1438107043504715,-0.083356946706771851,0.13635385036468506,-0.004601780790835619,0.077849216759204865,0.42804330587387085,0.77473348379135132,0.11700764298439026,0.85454660654067993,0.0,0.0,0.0,0.0029338763561099768,0.074074067175388336,0.0049674208275973797,1.0249589014444156e-16,0.074240438425310987,0.024941748380661009,0.039848464727401736,0.19937031745910644,0.30006647109985352,0.79831112921237946,1
21:08:16.884,-0.13412110507488251,1.1591894626617432,-9.4459571838378906,-0.1438107043504715,-0.083356946706771851,0.13635385036468506,-0.004601780790835619,0.077849216759204865,0.42804330587387085,0.77473348379135132,0.11700764298439026,0.85454660654067993,0.0,0.0,0.0,0.0029338763561099768,0.074074067175388336,0.0049674208275973797,1.0249589014444156e-16,0.074240438425310987,0.024941748380661009,0.039848464727401736,0.19937031745910644,0.30006647109985352,0.79831112921237946,1
21:08:16.928,-0.13412110507488251,1.1591894626617432,-9.4459571838378906,-0.1438107043504715,-0.083356946706771851,0.13635385036468506,-0.004601780790835619,0.077849216759204865,0.42804330587387085,0.77473348379135132,0.11700764298439026,0.85454660654067993,0.0,0.0,0.0,0.0029338763561099768,0.074074067175388336,0.0049674208275973797,1.0249589014444156e-16,0.074240438425310987,0.024941748380661009,0.039848464727401736,0.19937031745910644,0.30006647109985352,0.79831112921237946,1
21:08:16.984,-0.13412110507488251,1.1591894626617432,-9.4459571838378906,-0.1438107043504715,-0.083356946706771851,0.13635385036468506,-0.004601780790835619,0.077849216759204865,0.42804330587387085,0.77473348379135132,0.11700764298439026,0.85454660654067993,0.0,0.0,0.0,0.0029338763561099768,0.074074067175388336,0.0049674208275973797,1.0249589014444156e-16,0.074240438425310987,0.024941748380661009,0.039848464727401736,0.19937031745910644,0.30006647109985352,0.79831112921237946,1
21:08:17.065,0.29698243737220764,1.3412109613418579,-9.4459571838378906,0.057790596038103104,-0.213052898645401,0.26445189118385315,-0.004601780790835619,0.030487839132547379,0.0,0.0,0.39096340537071228,0.0,0.16161102056503296,0.0,0.46868878602981567,0.0029338763561099768,0.074074067175388336,0.0049674208275973797,1.0249589014444156e-16,0.074240438425310987,0.024941748380661009,0.039848464727401736,0.19937031745910644,0.30006647109985352,0.79831112921237946,1
21:08:17.085,0.29698243737220764,1.3412109613418579,-9.0914945602416992,0.057790596038103104,-0.213052898645401,0.26445189118385315,-0.055606666952371597,0.030487839132547379,0.0,0.0,0.39096340537071228,0.0,0.16161102056503296,0.0,0.46868878602981567,0.00091901450650766492,0.074074067175388336,0.0049674208275973797,1.0249589014444156e-16,0.074240438425310987,0.024941748380661009,0.039848464727401736,0.19937031745910644,0.30006647109985352,0.79831112921237946,1
21:08:17.138,0.29698243737220764,1.3412109613418579,-9.0914945602416992,0.057790596038103104,-0.213052898645401,0.26445189118385315,-0.055606666952371597,0.030487839132547379,0.0,0.0,0.39096340537071228,0.0,0.16161102056503296,0.0,0.46868878602981567,0.00091901450650766492,0.074074067175388336,0.0049674208275973797,1.0249589014444156e-16,0.074240438425310987,0.024941748380661009,0.039848464727401736,0.19937031745910644,0.30006647109985352,0.79831112921237946,1
21:08:17.191,0.29698243737220764,1.3412109613418579,-9.0914945602416992,0.057790596038103104,-0.213052898645401,0.26445189118385315,-0.055606666952371597,0.030487839132547379,0.0,0.0,0.39096340537071228,0.0,0.16161102056503296,0.0,0.46868878602981567,0.00091901450650766492,0.074074067175388336,0.0049674208275973797,1.0249589014444156e-16,0.074240438425310987,0.024941748380661009,0.039848464727401736,0.19937031745910644,0.30006647109985352,0.79831112921237946,1
21:08:17.239,0.29698243737220764,1.3412109613418579,-9.0914945602416992,0.057790596038103104,-0.213052898645401,0.26445189118385315,-0.055606666952371597,0.030487839132547379,0.0,0.0,0.39096340537071228,0.0,0.16161102056503296,0.0,0.46868878602981567,0.00091901450650766492,0.074074067175388336,0.0049674208275973797,1.0249589014444156e-16,0.074240438425310987,0.024941748380661009,0.039848464727401736,0.19937031745910644,0.30006647109985352,0.79831112921237946,1
21:08:17.284,0.29698243737220764,1.3412109613418579,-9.0914945602416992,0.057790596038103104,-0.213052898645401,0.26445189118385315,-0.055606666952371597,0.030487839132547379,0.0,0.0,0.39096340537071228,0.0,0.16161102056503296,0.0,0.46868878602981567,0.00091901450650766492,0.074074067175388336,0.0050045889802277088,1.0249589014444156e-16,0.074242934605017866,0.024941748380661009,0.039848464727401736,0.19937031745910644,0.30006647109985352,0.79831112921237946,1
21:08:17.353,0.29698243737220764,1.3412109613418579,-9.0914945602416992,0.057790596038103104,-0.213052898645401,0.26445189118385315,-0.055606666952371597,0.030487839132547379,0.0,0.0,0.39096340537071228,0.0,0.16161102056503296,0.0,0.46868878602981567,0.00091901450650766492,0.074074067175388336,0.0050045889802277088,1.0249589014444156e-16,0.074242934605017866,0.024941748380661009,0.039848464727401736,0.19937031745910644,0.30006647109985352,0.79831112921237946,1
21:08:17.391,1.9926563501358032,2.4333398342132568,-9.0914945602416992,0.49907639622688293,0.56192702054977417,0.18242654204368591,-0.055606666952371597,0.073630638420581818,0.13609552383422852,0.0,1.3385223150253296,0.0,0.017059007659554482,0.0,0.10353577882051468,0.00091901450650766492,0.074074067175388336,0.0050045889802277088,1.0249589014444156e-16,0.074242934605017866,0.024941748380661009,0.039848464727401736,0.19937031745910644,0.30006647109985352,0.79831112921237946,1
21:08:17.443,1.9926563501358032,2.4333398342132568,-3.6787500381469727,0.49907639622688293,0.56192702054977417,0.18242654204368591,-0.033364120870828629,0.073630638420581818,0.13609552383422852,0.0,1.3385223150253296,0.0,0.017059007659554482,0.0,0.10353577882051468,0.0009737072978168726,0.074074067175388336,0.0050045889802277088,1.0249589014444156e-16,0.074242934605017866,0.024941748380661009,0.039848464727401736,0.19937031745910644,0.30006647109985352,0.79831112921237946,1
21:08:17.489,1.9926563501358032,2.4333398342132568,-3.6787500381469727,0.49907639622688293,0.56192702054977417,0.18242654204368591,-0.033364120870828629,0.073630638420581818,0.13609552383422852,0.0,1.3385223150253296,0.0,0.017059007659554482,0.0,0.10353577882051468,0.0009737072978168726,0.074074067175388336,0.0050045889802277088,1.0249589014444156e-16,0.074242934605017866,0.024941748380661009,0.039848464727401736,0.19937031745910644,0.30006647109985352,0.79831112921237946,1
21:08:17.538,1.9926563501358032,2.4333398342132568,-3.6787500381469727,0.49907639622688293,0.56192702054977417,0.18242654204368591,-0.033364120870828629,0.073630638420581818,0.13609552383422852,0.0,1.3385223150253296,0.0,0.017059007659554482,0.0,0.10353577882051468,0.0009737072978168726,0.074074067175388336,0.0050045889802277088,1.0249589014444156e-16,0.074242934605017866,0.024941748380661009,0.039848464727401736,0.19937031745910644,0.30006647109985352,0.79831112921237946,1
21:08:17.592,1.9926563501358032,2.4333398342132568,-3.6787500381469727,0.49907639622688293,0.56192702054977417,0.18242654204368591,-0.033364120870828629,0.073630638420581818,0.13609552383422852,0.0,1.3385223150253296,0.0,0.017059007659554482,0.0,0.10353577882051468,0.0009737072978168726,0.074074067175388336,0.0050045889802277088,1.0249589014444156e-16,0.074242934605017866,0.024941748380661009,0.039848464727401736,0.19937031745910644,0.30006647109985352,0.79831112921237946,1
21:08:17.648,1.9926563501358032,2.4333398342132568,-3.6787500381469727,0.49907639622688293,0.56192702054977417,0.18242654204368591,-0.033364120870828629,0.073630638420581818,0.13609552383422852,0.0,1.3385223150253296,0.0,0.017059007659554482,0.0,0.10353577882051468,0.0009737072978168726,0.074074067175388336,0.0050045889802277088,1.0249589014444156e-16,0.074242934605017866,0.024941748380661009,0.039848464727401736,0.19937031745910644,0.30006647109985352,0.79831112921237946,1
21:08:17.734,1.9926563501358032,1.7723145484924316,-3.6787500381469727,0.006125270389020443,0.20026971399784088,-0.23995082080364227,-0.033364120870828629,0.074589557945728302,0.40727916359901428,0.55070173740386963,0.9363025426864624,0.74768084287643433,0.0,0.0,0.0,0.0009737072978168726,0.074074067175388336,0.0050045889802277088,1.0249589014444156e-16,0.074242934605017866,0.024941748380661009,0.039848464727401736,0.19937031745910644,0.30006647109985352,0.79831112921237946,1
21:08:17.752,-0.42152345180511475,1.7723145484924316,-13.124707221984863,0.006125270389020443,0.20026971399784088,-0.23995082080364227,0.008820708841085434,0.074589557945728302,0.40727916359901428,0.55070173740386963,0.9363025426864624,0.74768084287643433,0.0,0.0,0.0,0.0050477590411901474,0.074074067175388336,0.0050045889802277088,1.0249589014444156e-16,0.074242934605017866,0.024941748380661009,0.039848464727401736,0.19937031745910644,0.30006647109985352,0.79831112921237946,1
21:08:17.810,-0.42152345180511475,1.7723145484924316,-13.124707221984863,0.006125270389020443,0.20026971399784088,-0.23995082080364227,0.008820708841085434,0.074589557945728302,0.40727916359901428,0.55070173740386963,0.9363025426864624,0.74768084287643433,0.0,0.0,0.0,0.0050477590411901474,0.074074015021324158,0.0052656130865216255,1.0249589014444156e-16,0.074260934430939562,0.024941748380661009,0.039848464727401736,0.19937031745910644,0.30006647109985352,0.79831112921237946,1
21:08:17.856,-0.42152345180511475,1.7723145484924316,-13.124707221984863,0.006125270389020443,0.20026971399784088,-0.23995082080364227,0.008820708841085434,0.074589557945728302,0.40727916359901428,0.55070173740386963,0.9363025426864624,0.74768084287643433,0.0,0.0,0.0,0.0050477590411901474,0.074074015021324158,0.0052656130865216255,1.0249589014444156e-16,0.074260934430939562,0.024941748380661009,0.039848464727401736,0.19937031745910644,0.30006647109985352,0.79831112921237946,1
21:08:17.907,-0.42152345180511475,1.7723145484924316,-13.124707221984863,0.006125270389020443,0.20026971399784088,-0.23995082080364227,0.008820708841085434,0.074589557945728302,0.40727916359901428,0.55070173740386963,0.9363025426864624,0.74768084287643433,0.0,0.0,0.0,0.0050477590411901474,0.074074015021324158,0.0052656130865216255,1.0249589014444156e-16,0.074260934430939562,0.024941748380661009,0.039848464727401736,0.19937031745910644,0.30006647109985352,0.79831112921237946,1
21:08:17.958,-0.42152345180511475,1.7723145484924316,-13.124707221984863,0.006125270389020443,0.20026971399784088,-0.23995082080364227,0.008820708841085434,0.074589557945728302,0.40727916359901428,0.55070173740386963,0.9363025426864624,0.74768084287643433,0.0,0.0,0.0,0.0050477590411901474,0.074074015021324158,0.0052656130865216255,1.0249589014444156e-16,0.074260934430939562,0.024941748380661009,0.039848464727401736,0.19937031745910644,0.30006647109985352,0.79831112921237946,1
21:08:18.052,-0.42152345180511475,1.7723145484924316,-13.124707221984863,0.006125270389020443,0.20026971399784088,-0.23995082080364227,0.008820708841085434,0.074589557945728302,0.40727916359901428,0.55070173740386963,0.9363025426864624,0.74768084287643433,0.0,0.0,0.0,0.0050477590411901474,0.074074015021324158,0.0052656130865216255,1.0249589014444156e-16,0.074260934430939562,0.024941748380661009,0.039848464727401736,0.19937031745910644,0.30006647109985352,0.79831112921237946,1
21:08:18.079,1.2645703554153442,1.5328125953674316,-9.2351961135864258,-0.27483823895454407,-0.54221957921981812,0.031691618263721466,-0.043334785848855972,0.081876106560230255,0.50335311889648438,0.15911588072776794,1.3793189525604248,0.0,0.080387257039546967,0.0,0.097227573394775391,0.0015800627879798412,0.074074015021324158,0.0052656130865216255,1.0249589014444156e-16,0.074260934430939562,0.024941748380661009,0.039848464727401736,0.19937031745910644,0.30006647109985352,0.79831112921237946,1
21:08:18.124,1.2645703554153442,1.5328125953674316,-9.2351961135864258,-0.27483823895454407,-0.54221957921981812,0.031691618263721466,-0.043334785848855972,0.081876106560230255,0.50335311889648438,0.15911588072776794,1.3793189525604248,0.0,0.080387257039546967,0.0,0.097227573394775391,0.0015800627879798412,0.074074015021324158,0.0052656130865216255,1.0249589014444156e-16,0.074260934430939562,0.024941748380661009,0.039848464727401736,0.19937031745910644,0.30006647109985352,0.79831112921237946,1
21:08:18.179,1.2645703554153442,1.5328125953674316,-9.2351961135864258,-0.27483823895454407,-0.54221957921981812,0.031691618263721466,-0.043334785848855972,0.081876106560230255,0.50335311889648438,0.15911588072776794,1.3793189525604248,0.0,0.080387257039546967,0.0,0.097227573394775391,0.0015800627879798412,0.074074015021324158,0.0052656130865216255,1.0249589014444156e-16,0.074260934430939562,0.024941748380661009,0.039848464727401736,0.19937031745910644,0.30006647109985352,0.79831112921237946,1
21:08:18.223,1.2645703554153442,1.5328125953674316,-9.2351961135864258,-0.27483823895454407,-0.54221957921981812,0.031691618263721466,-0.043334785848855972,0.081876106560230255,0.50335311889648438,0.15911588072776794,1.3793189525604248,0.0,0.080387257039546967,0.0,0.097227573394775391,0.0015800627879798412,0.074074015021324158,0.0052656130865216255,1.0249589014444156e-16,0.074260934430939562,0.024941748380661009,0.039848464727401736,0.19937031745910644,0.30006647109985352,0.79831112921237946,1
21:08:18.278,1.2645703554153442,1.5328125953674316,-9.2351961135864258,-0.27483823895454407,-0.54221957921981812,0.031691618263721466,-0.043334785848855972,0.081876106560230255,0.50335311889648438,0.15911588072776794,1.3793189525604248,0.0,0.080387257039546967,0.0,0.097227573394775391,0.0015800627879798412,0.074074015021324158,0.0052656130865216255,1.0249589014444156e-16,0.074260934430939562,0.024941748380661009,0.039848464727401736,0.19937031745910644,0.30006647109985352,0.79831112921237946,1
21:08:18.324,1.2645703554153442,1.5328125953674316,-9.2351961135864258,-0.27483823895454407,-0.54221957921981812,0.031691618263721466,-0.043334785848855972,0.081876106560230255,0.50335311889648438,0.15911588072776794,1.3793189525604248,0.0,0.080387257039546967,0.0,0.097227573394775391,0.0015800627879798412,0.074074015021324158,0.0052656130865216255,1.0249589014444156e-16,0.074260934430939562,0.024941748380661009,0.039848464727401736,0.19937031745910644,0.30006647109985352,0.79831112921237946,1
21:08:18.411,-0.81430667638778687,0.54606449604034424,-11.055410385131836,-0.066312715411186218,-0.011984225362539291,-0.25459820032119751,-0.026652637869119644,0.069987602531909943,0.72752565145492554,0.0,1.4886018037796021,0.0,0.0,0.0,0.25740665197372437,0.0028479928150773048,0.074074126780033112,0.0057130712084472179,1.0249589014444156e-16,0.074294114442916726,0.024941748380661009,0.039848464727401736,0.19937031745910644,0.30006647109985352,0.79831112921237946,1
21:08:18.436,-0.81430667638778687,0.54606449604034424,-11.055410385131836,-0.066312715411186218,-0.011984225362539291,-0.25459820032119751,-0.026652637869119644,0.069987602531909943,0.72752565145492554,0.0,1.4886018037796021,0.0,0.0,0.0,0.25740665197372437,0.0028479928150773048,0.074074126780033112,0.0057130712084472179,1.0249589014444156e-16,0.074294114442916726,0.024941748380661009,0.039848464727401736,0.19937031745910644,0.30006647109985352,0.79831112921237946,1
21:08:18.485,-0.81430667638778687,0.54606449604034424,-11.055410385131836,-0.066312715411186218,-0.011984225362539291,-0.25459820032119751,-0.026652637869119644,0.069987602531909943,0.72752565145492554,0.0,1.4886018037796021,0.0,0.0,0.0,0.25740665197372437,0.0028479928150773048,0.074074126780033112,0.0057130712084472179,1.0249589014444156e-16,0.074294114442916726,0.024941748380661009,0.039848464727401736,0.19937031745910644,0.30006647109985352,0.79831112921237946,1
21:08:18.537,-0.81430667638778687,0.54606449604034424,-11.055410385131836,-0.066312715411186218,-0.011984225362539291,-0.25459820032119751,-0.026652637869119644,0.069987602531909943,0.72752565145492554,0.0,1.4886018037796021,0.0,0.0,0.0,0.25740665197372437,0.0028479928150773048,0.074074126780033112,0.0057130712084472179,1.0249589014444156e-16,0.074294114442916726,0.024941748380661009,0.039848464727401736,0.19937031745910644,0.30006647109985352,0.79831112921237946,1
21:08:18.584,-0.81430667638778687,0.54606449604034424,-11.055410385131836,-0.066312715411186218,-0.011984225362539291,-0.25459820032119751,-0.026652637869119644,0.069987602531909943,0.72752565145492554,0.0,1.4886018037796021,0.0,0.0,0.0,0.25740665197372437,0.0028479928150773048,0.074074126780033112,0.0057130712084472179,1.0249589014444156e-16,0.074294114442916726,0.024941748380661009,0.039848464727401736,0.19937031745910644,0.30006647109985352,0.79831112921237946,1
21:08:18.641,-0.81430667638778687,0.54606449604034424,-11.055410385131836,-0.066312715411186218,-0.011984225362539291,-0.25459820032119751,-0.026652637869119644,0.069987602531909943,0.72752565145492554,0.0,1.4886018037796021,0.0,0.0,0.0,0.25740665197372437,0.0028479928150773048,0.074074126780033112,0.0057130712084472179,1.0249589014444156e-16,0.074294114442916726,0.024941748380661009,0.039848464727401736,0.19937031745910644,0.30006647109985352,0.79831112921237946,1
21:08:18.731,-0.81430667638778687,0.54606449604034424,-11.055410385131836,-0.066312715411186218,-0.011984225362539291,-0.25459820032119751,-0.026652637869119644,0.043909851461648941,0.72752565145492554,0.0,1.4886018037796021,1.0268020629882812,0.0,0.0,0.25740665197372437,0.0028479928150773048,0.074074126780033112,0.0057130712084472179,1.0249589014444156e-16,0.074294114442916726,0.024941748380661009,0.039848464727401736,0.19937031745910644,0.30006647109985352,0.79831112921237946,1
21:08:18.754,2.0692970752716064,1.0154882669448853,-7.9802055358886719,-0.00053263222798705101,0.53369748592376709,-0.68922609090805054,0.031254943460226059,0.043909851461648941,0.15219913423061371,0.073465727269649506,1.3793189525604248,1.0268020629882812,0.0,0.0,0.016122903674840927,0.0061441478319466114,0.074074126780033112,0.0057130712084472179,1.0249589014444156e-16,0.074294114442916726,0.024941748380661009,0.039848464727401736,0.19937031745910644,0.30006647109985352,0.79831112921237946,1
21:08:18.810,2.0692970752716064,1.0154882669448853,-7.9802055358886719,-0.00053263222798705101,0.53369748592376709,-0.68922609090805054,0.031254943460226059,0.043909851461648941,0.15219913423061371,0.073465727269649506,1.3793189525604248,1.0268020629882812,0.0,0.0,0.016122903674840927,0.0061441478319466114,0.074074126780033112,0.0057130712084472179,1.0249589014444156e-16,0.074294114442916726,0.024941748380661009,0.039848464727401736,0.19937031745910644,0.30006647109985352,0.79831112921237946,1
21:08:18.853,2.0692970752716064,1.0154882669448853,-7.9802055358886719,-0.00053263222798705101,0.53369748592376709,-0.68922609090805054,0.031254943460226059,0.043909851461648941,0.15219913423061371,0.073465727269649506,1.3793189525604248,1.0268020629882812,0.0,0.0,0.016122903674840927,0.0061441478319466114,0.074074126780033112,0.0057130712084472179,1.0249589014444156e-16,0.074294114442916726,0.024941748380661009,0.039848464727401736,0.19937031745910644,0.30006647109985352,0.79831112921237946,1
21:08:18.905,2.0692970752716064,1.0154882669448853,-7.9802055358886719,-0.00053263222798705101,0.53369748592376709,-0.68922609090805054,0.031254943460226059,0.043909851461648941,0.15219913423061371,0.073465727269649506,1.3793189525604248,1.0268020629882812,0.0,0.0,0.016122903674840927,0.0061441478319466114,0.074074015021324158,0.0059365043416619301,1.0249589014444156e-16,0.074311518522890696,0.024941748380661009,0.039848464727401736,0.19937031745910644,0.30006647109985352,0.79831112921237946,1
21:08:18.958,2.0692970752716064,1.0154882669448853,-7.9802055358886719,-0.00053263222798705101,0.53369748592376709,-0.68922609090805054,0.031254943460226059,0.043909851461648941,0.15219913423061371,0.073465727269649506,1.3793189525604248,1.0268020629882812,0.0,0.0,0.016122903674840927,0.0061441478319466114,0.074074015021324158,0.0059365043416619301,1.0249589014444156e-16,0.074311518522890696,0.024941748380661009,0.039848464727401736,0.19937031745910644,0.30006647109985352,0.79831112921237946,1
21:08:19.009,2.0692970752716064,1.0154882669448853,-7.9802055358886719,-0.00053263222798705101,0.53369748592376709,-0.68922609090805054,0.031254943460226059,0.043909851461648941,0.15219913423061371,0.073465727269649506,1.3793189525604248,1.0268020629882812,0.0,0.0,0.016122903674840927,0.0061441478319466114,0.074074015021324158,0.0059365043416619301,1.0249589014444156e-16,0.074311518522890696,0.024941748380661009,0.039848464727401736,0.19937031745910644,0.30006647109985352,0.79831112921237946,1
21:08:19.083,0.83346682786941528,0.55564457178115845,-9.6950397491455078,-0.29614353179931641,-0.47857004404067993,-0.16777914762496948,0.031254943460226059,0.091463394463062286,0.29082593321800232,0.44587269425392151,0.92746347188949585,0.27165693044662476,0.10057005286216736,0.0,0.40844118595123291,0.0040661455132067204,0.074074015021324158,0.0059365043416619301,1.0249589014444156e-16,0.074311518522890696,0.024941748380661009,0.039848464727401736,0.19937031745910644,0.30006647109985352,0.79831112921237946,1
21:08:19.109,0.83346682786941528,0.55564457178115845,-9.6950397491455078,-0.29614353179931641,-0.47857004404067993,-0.16777914762496948,-0.024543587118387222,0.091463394463062286,0.29082593321800232,0.44587269425392151,0.92746347188949585,0.27165693044662476,0.10057005286216736,0.0,0.40844118595123291,0.0040661455132067204,0.074074015021324158,0.0059365043416619301,1.0249589014444156e-16,0.074311518522890696,0.024941748380661009,0.039848464727401736,0.19937031745910644,0.30006647109985352,0.79831112921237946,1
21:08:19.156,0.83346682786941528,0.55564457178115845,-9.6950397491455078,-0.29614353179931641,-0.47857004404067993,-0.16777914762496948,-0.024543587118387222,0.091463394463062286,0.29082593321800232,0.44587269425392151,0.92746347188949585,0.27165693044662476,0.10057005286216736,0.0,0.40844118595123291,0.0040661455132067204,0.074074015021324158,0.0059365043416619301,1.0249589014444156e-16,0.074311518522890696,0.024941748380661009,0.039848464727401736,0.19937031745910644,0.30006647109985352,0.79831112921237946,1
21:08:19.209,0.83346682786941528,0.55564457178115845,-9.6950397491455078,-0.29614353179931641,-0.47857004404067993,-0.16777914762496948,-0.024543587118387222,0.091463394463062286,0.29082593321800232,0.44587269425392151,0.92746347188949585,0.27165693044662476,0.10057005286216736,0.0,0.40844118595123291,0.0040661455132067204,0.074074015021324158,0.0059365043416619301,1.0249589014444156e-16,0.074311518522890696,0.024941748380661009,0.039848464727401736,0.19937031745910644,0.30006647109985352,0.79831112921237946,1
21:08:19.274,0.83346682786941528,0.55564457178115845,-9.6950397491455078,-0.29614353179931641,-0.47857004404067993,-0.16777914762496948,-0.024543587118387222,0.091463394463062286,0.29082593321800232,0.44587269425392151,0.92746347188949585,0.27165693044662476,0.10057005286216736,0.0,0.40844118595123291,0.0040661455132067204,0.074074015021324158,0.0059365043416619301,1.0249589014444156e-16,0.074311518522890696,0.024941748380661009,0.039848464727401736,0.19937031745910644,0.30006647109985352,0.79831112921237946,1
21:08:19.306,0.83346682786941528,0.55564457178115845,-9.6950397491455078,-0.29614353179931641,-0.47857004404067993,-0.16777914762496948,-0.024543587118387222,0.091463394463062286,0.29082593321800232,0.44587269425392151,0.92746347188949585,0.27165693044662476,0.10057005286216736,0.0,0.40844118595123291,0.0040661455132067204,0.074074015021324158,0.0059365043416619301,1.0249589014444156e-16,0.074311518522890696,0.024941748380661009,0.039848464727401736,0.19937031745910644,0.30006647109985352,0.79831112921237946,1
21:08:19.398,0.83346682786941528,0.55564457178115845,-9.6950397491455078,-0.29614353179931641,-0.47857004404067993,-0.16777914762496948,-0.024543587118387222,0.059058014303445816,0.29082593321800232,0.44587269425392151,0.92746347188949585,0.27165693044662476,0.10057005286216736,0.0,0.40844118595123291,0.0040661455132067204,0.074074126780033112,0.0059365606866776943,1.0249589014444156e-16,0.074311634425647144,0.024941748380661009,0.039848464727401736,0.19937031745910644,0.30006647109985352,0.79831112921237946,1
21:08:19.426,0.56522464752197266,-0.34488281607627869,-10.796748161315918,0.049801114946603775,-0.27909928560256958,-0.3387540876865387,-0.013997379690408707,0.059058014303445816,0.0,0.0,0.52934658527374268,0.0,0.36817225813865662,0.38043880462646484,1.1736725568771362,0.0,0.074074126780033112,0.0059365606866776943,1.0249589014444156e-16,0.074311634425647144,0.024941748380661009,0.039848464727401736,0.19937031745910644,0.30006647109985352,0.79831112921237946,1
21:08:19.473,0.56522464752197266,-0.34488281607627869,-10.796748161315918,0.049801114946603775,-0.27909928560256958,-0.3387540876865387,-0.013997379690408707,0.059058014303445816,0.0,0.0,0.52934658527374268,0.0,0.36817225813865662,0.38043880462646484,1.1736725568771362,0.0,0.074074126780033112,0.0059365606866776943,1.0249589014444156e-16,0.074311634425647144,0.024941748380661009,0.039848464727401736,0.19937031745910644,0.30006647109985352,0.79831112921237946,1
21:08:19.519,0.56522464752197266,-0.34488281607627869,-10.796748161315918,0.049801114946603775,-0.27909928560256958,-0.3387540876865387,-0.013997379690408707,0.059058014303445816,0.0,0.0,0.52934658527374268,0.0,0.36817225813865662,0.38043880462646484,1.1736725568771362,0.0,0.074074126780033112,0.0059365606866776943,1.0249589014444156e-16,0.074311634425647144,0.024941748380661009,0.039848464727401736,0.19937031745910644,0.30006647109985352,0.79831112921237946,1
21:08:19.576,0.56522464752197266,-0.34488281607627869,-10.796748161315918,0.049801114946603775,-0.27909928560256958,-0.3387540876865387,-0.013997379690408707,0.059058014303445816,0.0,0.0,0.52934658527374268,0.0,0.36817225813865662,0.38043880462646484,1.1736725568771362,0.0,0.074074126780033112,0.0059365606866776943,1.0249589014444156e-16,0.074311634425647144,0.024941748380661009,0.039848464727401736,0.19937031745910644,0.30006647109985352,0.79831112921237946,1
21:08:19.620,0.56522464752197266,-0.34488281607627869,-10.796748161315918,0.049801114946603775,-0.27909928560256958,-0.3387540876865387,-0.013997379690408707,0.059058014303445816,0.0,0.0,0.52934658527374268,0.0,0.36817225813865662,0.38043880462646484,1.1736725568771362,0.0,0.074074126780033112,0.0059365606866776943,1.0249589014444156e-16,0.074311634425647144,0.024941748380661009,0.039848464727401736,0.19937031745910644,0.30006647109985352,0.79831112921237946,1
21:08:19.674,0.56522464752197266,-0.34488281607627869,-10.796748161315918,0.049801114946603775,-0.27909928560256958,-0.3387540876865387,-0.013997379690408707,0.059058014303445816,0.0,0.0,0.52934658527374268,0.0,0.36817225813865662,0.38043880462646484,1.1736725568771362,0.0,0.074074126780033112,0.0059365606866776943,1.0249589014444156e-16,0.074311634425647144,0.024941748380661009,0.039848464727401736,0.19937031745910644,0.30006647109985352,0.79831112921237946,1
21:08:19.746,0.56522464752197266,-0.34488281607627869,-10.796748161315918,-0.0087884319946169853,0.7257114052772522,-0.22370553016662598,-0.013997379690408707,0.037773910909891129,0.0,0.1014808788895607,1.5383791923522949,1.5298333168029785,0.0,0.38043880462646484,0.0,0.0,0.074074126780033112,0.0059365606866776943,1.0249589014444156e-16,0.074311634425647144,0.024941748380661009,0.039848464727401736,0.19937031745910644,0.30006647109985352,0.79831112921237946,1
21:08:19.771,0.99632817506790161,1.6765137910842896,-14.188096046447754,-0.0087884319946169853,0.7257114052772522,-0.22370553016662598,0.034706290811300278,0.037773910909891129,0.27282455563545227,0.1014808788895607,1.5383791923522949,1.5298333168029785,0.0,0.0,0.0,0.0092387730255723,0.074074126780033112,0.0059365606866776943,1.0249589014444156e-16,0.074311634425647144,0.024941748380661009,0.039848464727401736,0.19937031745910644,0.30006647109985352,0.79831112921237946,1
21:08:19.822,0.99632817506790161,1.6765137910842896,-14.188096046447754,-0.0087884319946169853,0.7257114052772522,-0.22370553016662598,0.034706290811300278,0.037773910909891129,0.27282455563545227,0.1014808788895607,1.5383791923522949,1.5298333168029785,0.0,0.0,0.0,0.0092387730255723,0.074074126780033112,0.0059365606866776943,1.0249589014444156e-16,0.074311634425647144,0.024941748380661009,0.039848464727401736,0.19937031745910644,0.30006647109985352,0.79831112921237946,1
21:08:19.873,0.99632817506790161,1.6765137910842896,-14.188096046447754,-0.0087884319946169853,0.7257114052772522,-0.22370553016662598,0.034706290811300278,0.037773910909891129,0.27282455563545227,0.1014808788895607,1.5383791923522949,1.5298333168029785,0.0,0.0,0.0,0.0092387730255723,0.074074126780033112,0.0059365606866776943,1.0249589014444156e-16,0.074311634425647144,0.024941748380661009,0.039848464727401736,0.19937031745910644,0.30006647109985352,0.79831112921237946,1
21:08:19.924,0.99632817506790161,1.6765137910842896,-14.188096046447754,-0.0087884319946169853,0.7257114052772522,-0.22370553016662598,0.034706290811300278,0.037773910909891129,0.27282455563545227,0.1014808788895607,1.5383791923522949,1.5298333168029785,0.0,0.0,0.0,0.0092387730255723,0.074074126780033112,0.0059365606866776943,1.0249589014444156e-16,0.074311634425647144,0.024941748380661009,0.039848464727401736,0.19937031745910644,0.30006647109985352,0.79831112921237946,1
21:08:19.977,0.99632817506790161,1.6765137910842896,-14.188096046447754,-0.0087884319946169853,0.7257114052772522,-0.22370553016662598,0.034706290811300278,0.037773910909891129,0.27282455563545227,0.1014808788895607,1.5383791923522949,1.5298333168029785,0.0,0.0,0.0,0.0092387730255723,0.074074126780033112,0.0059365606866776943,1.0249589014444156e-16,0.074311634425647144,0.024941748380661009,0.039848464727401736,0.19937031745910644,0.30006647109985352,0.79831112921237946,1
21:08:20.027,0.99632817506790161,1.6765137910842896,-14.188096046447754,-0.0087884319946169853,0.7257114052772522,-0.22370553016662598,0.034706290811300278,0.037773910909891129,0.27282455563545227,0.1014808788895607,1.5383791923522949,1.5298333168029785,0.0,0.0,0.0,0.0092387730255723,0.074074126780033112,0.0059365606866776943,1.0249589014444156e-16,0.074311634425647144,0.024941748380661009,0.039848464727401736,0.19937031745910644,0.30006647109985352,0.79831112921237946,1
21:08:20.083,0.99632817506790161,1.6765137910842896,-14.188096046447754,0.030093720182776451,-0.21225394308567047,-0.13608753681182861,0.034706290811300278,0.098941631615161896,0.27282455563545227,0.22223450243473053,1.5383791923522949,0.25557920336723328,0.0823097825050354,0.0,0.45755070447921753,0.0092387730255723,0.074074126780033112,0.0059365606866776943,1.0249589014444156e-16,0.074311634425647144,0.024941748380661009,0.039848464727401736,0.19937031745910644,0.30006647109985352,0.79831112921237946,1
21:08:20.126,3.9661524295806885,2.0118165016174316,-15.778388977050781,0.030093720182776451,-0.21225394308567047,-0.13608753681182861,-0.019941631704568863,0.098941631615161896,0.037638198584318161,0.22223450243473053,0.27566418051719666,0.25557920336723328,0.0823097825050354,0.27157244086265564,0.45755070447921753,0.0049276035279035568,0.074074126780033112,0.0059365606866776943,1.0249589014444156e-16,0.074311634425647144,0.024941748380661009,0.039848464727401736,0.19937031745910644,0.30006647109985352,0.79831112921237946,1
21:08:20.171,3.9661524295806885,2.0118165016174316,-15.778388977050781,0.030093720182776451,-0.21225394308567047,-0.13608753681182861,-0.019941631704568863,0.098941631615161896,0.037638198584318161,0.22223450243473053,0.27566418051719666,0.25557920336723328,0.0823097825050354,0.27157244086265564,0.45755070447921753,0.0049276035279035568,0.074074126780033112,0.0059365606866776943,1.0249589014444156e-16,0.074311634425647144,0.024941748380661009,0.039848464727401736,0.19937031745910644,0.30006647109985352,0.79831112921237946,1
21:08:20.224,3.9661524295806885,2.0118165016174316,-15.778388977050781,0.030093720182776451,-0.21225394308567047,-0.13608753681182861,-0.019941631704568863,0.098941631615161896,0.037638198584318161,0.22223450243473053,0.27566418051719666,0.25557920336723328,0.0823097825050354,0.27157244086265564,0.45755070447921753,0.0049276035279035568,0.074074126780033112,0.0059365606866776943,1.0249589014444156e-16,0.074311634425647144,0.024941748380661009,0.039848464727401736,0.19937031745910644,0.30006647109985352,0.79831112921237946,1
21:08:20.280,3.9661524295806885,2.0118165016174316,-15.778388977050781,0.030093720182776451,-0.21225394308567047,-0.13608753681182861,-0.019941631704568863,0.098941631615161896,0.037638198584318161,0.22223450243473053,0.27566418051719666,0.25557920336723328,0.0823097825050354,0.27157244086265564,0.45755070447921753,0.0049276035279035568,0.074074126780033112,0.0059365606866776943,1.0249589014444156e-16,0.074311634425647144,0.024941748380661009,0.039848464727401736,0.19937031745910644,0.30006647109985352,0.79831112921237946,1
21:08:20.321,3.9661524295806885,2.0118165016174316,-15.778388977050781,0.030093720182776451,-0.21225394308567047,-0.13608753681182861,-0.019941631704568863,0.098941631615161896,0.037638198584318161,0.22223450243473053,0.27566418051719666,0.25557920336723328,0.0823097825050354,0.27157244086265564,0.45755070447921753,0.0049276035279035568,0.074074126780033112,0.0059365606866776943,1.0249589014444156e-16,0.074311634425647144,0.024941748380661009,0.039848464727401736,0.19937031745910644,0.30006647109985352,0.79831112921237946,1
21:08:20.408,3.9661524295806885,2.0118165016174316,-15.778388977050781,0.030093720182776451,-0.21225394308567047,-0.13608753681182861,-0.019941631704568863,0.098941631615161896,0.037638198584318161,0.22223450243473053,0.27566418051719666,0.25557920336723328,0.0823097825050354,0.27157244086265564,0.45755070447921753,0.0049276035279035568,0.074074126780033112,0.0059365606866776943,1.0249589014444156e-16,0.074311634425647144,0.024941748380661009,0.039848464727401736,0.19937031745910644,0.30006647109985352,0.79831112921237946,1
21:08:20.441,0.18202149868011475,-1.3795312643051147,-9.9153814315795898,0.076699040830135345,-0.31744879484176636,-0.17816548049449921,-0.017257038503885269,0.073247261345386505,0.0,0.0,0.0061952057294547558,0.0,0.38883617520332336,0.96473234891891479,0.96644443273544312,0.0041250092908740044,0.074074126780033112,0.0059365606866776943,1.0249589014444156e-16,0.074311634425647144,0.024941748380661009,0.039848464727401736,0.19937031745910644,0.30006647109985352,0.79831112921237946,1
21:08:20.484,0.18202149868011475,-1.3795312643051147,-9.9153814315795898,0.076699040830135345,-0.31744879484176636,-0.17816548049449921,-0.017257038503885269,0.073247261345386505,0.0,0.0,0.0061952057294547558,0.0,0.38883617520332336,0.96473234891891479,0.96644443273544312,0.0041250092908740044,0.074074015021324158,0.0059366170316934586,1.0249589014444156e-16,0.074311527525413909,0.024941748380661009,0.039848464727401736,0.19937031745910644,0.30006647109985352,0.79831112921237946,1
21:08:20.527,0.18202149868011475,-1.3795312643051147,-9.9153814315795898,0.076699040830135345,-0.31744879484176636,-0.17816548049449921,-0.017257038503885269,0.073247261345386505,0.0,0.0,0.0061952057294547558,0.0,0.38883617520332336,0.96473234891891479,0.96644443273544312,0.0041250092908740044,0.074074015021324158,0.0059366170316934586,1.0249589014444156e-16,0.074311527525413909,0.024941748380661009,0.039848464727401736,0.19937031745910644,0.30006647109985352,0.79831112921237946,1
21:08:20.582,0.18202149868011475,-1.3795312643051147,-9.9153814315795898,0.076699040830135345,-0.31744879484176636,-0.17816548049449921,-0.017257038503885269,0.073247261345386505,0.0,0.0,0.0061952057294547558,0.0,0.38883617520332336,0.96473234891891479,0.96644443273544312,0.0041250092908740044,0.074074015021324158,0.0059366170316934586,1.0249589014444156e-16,0.074311527525413909,0.024941748380661009,0.039848464727401736,0.19937031745910644,0.30006647109985352,0.79831112921237946,1
21:08:20.630,0.18202149868011475,-1.3795312643051147,-9.9153814315795898,0.076699040830135345,-0.31744879484176636,-0.17816548049449921,-0.017257038503885269,0.073247261345386505,0.0,0.0,0.0061952057294547558,0.0,0.38883617520332336,0.96473234891891479,0.96644443273544312,0.0041250092908740044,0.074074015021324158,0.0059366170316934586,1.0249589014444156e-16,0.074311527525413909,0.024941748380661009,0.039848464727401736,0.19937031745910644,0.30006647109985352,0.79831112921237946,1
21:08:20.683,0.18202149868011475,-1.3795312643051147,-9.9153814315795898,0.076699040830135345,-0.31744879484176636,-0.17816548049449921,-0.017257038503885269,0.073247261345386505,0.0,0.0,0.0061952057294547558,0.0,0.38883617520332336,0.96473234891891479,0.96644443273544312,0.0041250092908740044,0.074074015021324158,0.0059366170316934586,1.0249589014444156e-16,0.074311527525413909,0.024941748380661009,0.039848464727401736,0.19937031745910644,0.30006647109985352,0.79831112921237946,1
21:08:20.755,2.8452832698822021,-0.3544628918170929,-9.9153814315795898,0.1113201379776001,-0.017576863989233971,-0.17949706315994263,-0.017257038503885269,-0.00038355193100869656,0.090947702527046204,0.12517362833023071,0.28070679306983948,0.91623228788375854,0.0018170173279941082,0.96473234891891479,0.15287116169929504,0.0041250092908740044,0.074074015021324158,0.0059366170316934586,1.0249589014444156e-16,0.074311527525413909,0.024941748380661009,0.039848464727401736,0.19937031745910644,0.30006647109985352,0.79831112921237946,1
21:08:20.785,2.8452832698822021,-0.3544628918170929,-5.9779691696166992,0.1113201379776001,-0.017576863989233971,-0.17949706315994263,0.046786483377218246,-0.00038355193100869656,0.090947702527046204,0.12517362833023071,0.28070679306983948,0.91623228788375854,0.0018170173279941082,0.0,0.15287116169929504,0.035153273493051529,0.074074015021324158,0.0059366170316934586,1.0249589014444156e-16,0.074311527525413909,0.024941748380661009,0.039848464727401736,0.19937031745910644,0.30006647109985352,0.79831112921237946,1
21:08:20.832,2.8452832698822021,-0.3544628918170929,-5.9779691696166992,0.1113201379776001,-0.017576863989233971,-0.17949706315994263,0.046786483377218246,-0.00038355193100869656,0.090947702527046204,0.12517362833023071,0.28070679306983948,0.91623228788375854,0.0018170173279941082,0.0,0.15287116169929504,0.035153273493051529,0.074074015021324158,0.0059366170316934586,1.0249589014444156e-16,0.074311527525413909,0.024941748380661009,0.039848464727401736,0.19937031745910644,0.30006647109985352,0.79831112921237946,1
21:08:20.898,2.8452832698822021,-0.3544628918170929,-5.9779691696166992,0.1113201379776001,-0.017576863989233971,-0.17949706315994263,0.046786483377218246,-0.00038355193100869656,0.090947702527046204,0.12517362833023071,0.28070679306983948,0.91623228788375854,0.0018170173279941082,0.0,0.15287116169929504,0.035153273493051529,0.074074015021324158,0.0059366170316934586,1.0249589014444156e-16,0.074311527525413909,0.024941748380661009,0.039848464727401736,0.19937031745910644,0.30006647109985352,0.79831112921237946,1
21:08:20.926,2.8452832698822021,-0.3544628918170929,-5.9779691696166992,0.1113201379776001,-0.017576863989233971,-0.17949706315994263,0.046786483377218246,-0.00038355193100869656,0.090947702527046204,0.12517362833023071,0.28070679306983948,0.91623228788375854,0.0018170173279941082,0.0,0.15287116169929504,0.035153273493051529,0.074074015021324158,0.0059366170316934586,1.0249589014444156e-16,0.074311527525413909,0.024941748380661009,0.039848464727401736,0.19937031745910644,0.30006647109985352,0.79831112921237946,1
21:08:20.980,2.8452832698822021,-0.3544628918170929,-5.9779691696166992,0.1113201379776001,-0.017576863989233971,-0.17949706315994263,0.046786483377218246,-0.00038355193100869656,0.090947702527046204,0.12517362833023071,0.28070679306983948,0.91623228788375854,0.0018170173279941082,0.0,0.15287116169929504,0.035153273493051529,0.074074015021324158,0.0059366170316934586,1.0249589014444156e-16,0.074311527525413909,0.024941748380661009,0.039848464727401736,0.19937031745910644,0.30006647109985352,0.79831112921237946,1
21:08:21.030,2.8452832698822021,-0.3544628918170929,-5.9779691696166992,0.1113201379776001,-0.017576863989233971,-0.17949706315994263,0.046786483377218246,-0.00038355193100869656,0.090947702527046204,0.12517362833023071,0.28070679306983948,0.91623228788375854,0.0018170173279941082,0.0,0.15287116169929504,0.035153273493051529,0.074074015021324158,0.0059365322813391685,1.0249589014444156e-16,0.074311520754905422,0.024941748380661009,0.039848464727401736,0.19937031745910644,0.30006647109985352,0.79831112921237946,1
21:08:21.099,0.54606449604034424,-2.1171972751617432,-3.3051271438598633,-0.45034053921699524,0.61119550466537476,-0.32543829083442688,0.046786483377218246,0.10431034117937088,0.0,0.038916014134883881,0.012521504424512386,0.3789311945438385,0.029123203828930855,0.31960174441337585,0.041235707700252533,0.00032205379102379084,0.074074015021324158,0.0059365322813391685,1.0249589014444156e-16,0.074311520754905422,0.024941748380661009,0.039848464727401736,0.19937031745910644,0.30006647109985352,0.79831112921237946,1
21:08:21.131,0.54606449604034424,-2.1171972751617432,-3.3051271438598633,-0.45034053921699524,0.61119550466537476,-0.32543829083442688,-0.021667305380105972,0.10431034117937088,0.0,0.038916014134883881,0.012521504424512386,0.3789311945438385,0.029123203828930855,0.31960174441337585,0.041235707700252533,0.00032205379102379084,0.074074015021324158,0.0059365322813391685,1.0249589014444156e-16,0.074311520754905422,0.024941748380661009,0.039848464727401736,0.19937031745910644,0.30006647109985352,0.79831112921237946,1
21:08:21.181,0.54606449604034424,-2.1171972751617432,-3.3051271438598633,-0.45034053921699524,0.61119550466537476,-0.32543829083442688,-0.021667305380105972,0.10431034117937088,0.0,0.038916014134883881,0.012521504424512386,0.3789311945438385,0.029123203828930855,0.31960174441337585,0.041235707700252533,0.00032205379102379084,0.074074015021324158,0.0059365322813391685,1.0249589014444156e-16,0.074311520754905422,0.024941748380661009,0.039848464727401736,0.19937031745910644,0.30006647109985352,0.79831112921237946,1
21:08:21.233,0.54606449604034424,-2.1171972751617432,-3.3051271438598633,-0.45034053921699524,0.61119550466537476,-0.32543829083442688,-0.021667305380105972,0.10431034117937088,0.0,0.038916014134883881,0.012521504424512386,0.3789311945438385,0.029123203828930855,0.31960174441337585,0.041235707700252533,0.00032205379102379084,0.074074015021324158,0.0059365322813391685,1.0249589014444156e-16,0.074311520754905422,0.024941748380661009,0.039848464727401736,0.19937031745910644,0.30006647109985352,0.79831112921237946,1
21:08:21.295,0.54606449604034424,-2.1171972751617432,-3.3051271438598633,-0.45034053921699524,0.61119550466537476,-0.32543829083442688,-0.021667305380105972,0.10431034117937088,0.0,0.038916014134883881,0.012521504424512386,0.3789311945438385,0.029123203828930855,0.31960174441337585,0.041235707700252533,0.00032205379102379084,0.074074015021324158,0.0059365322813391685,1.0249589014444156e-16,0.074311520754905422,0.024941748380661009,0.039848464727401736,0.19937031745910644,0.30006647109985352,0.79831112921237946,1
21:08:21.332,0.54606449604034424,-2.1171972751617432,-3.3051271438598633,-0.45034053921699524,0.61119550466537476,-0.32543829083442688,-0.021667305380105972,0.10431034117937088,0.0,0.038916014134883881,0.012521504424512386,0.3789311945438385,0.029123203828930855,0.31960174441337585,0.041235707700252533,0.00032205379102379084,0.074074015021324158,0.0059365322813391685,1.0249589014444156e-16,0.074311520754905422,0.024941748380661009,0.039848464727401736,0.19937031745910644,0.30006647109985352,0.79831112921237946,1
21:08:21.384,0.54606449604034424,-2.1171972751617432,-3.3051271438598633,-0.45034053921699524,0.61119550466537476,-0.32543829083442688,-0.021667305380105972,0.10431034117937088,0.0,0.038916014134883881,0.012521504424512386,0.3789311945438385,0.029123203828930855,0.31960174441337585,0.041235707700252533,0.00032205379102379084,0.074074015021324158,0.0059365322813391685,1.0249589014444156e-16,0.074311520754905422,0.024941748380661009,0.039848464727401736,0.19937031745910644,0.30006647109985352,0.79831112921237946,1
21:08:21.439,1.3891113996505737,-1.9160157442092896,-10.193203926086426,-0.029028456658124924,-0.1829591691493988,0.061252705752849579,-0.048895660787820816,0.11523992568254471,0.0,0.0,0.0037925555370748043,0.0,0.41798824071884155,1.3918836116790771,0.96644443273544312,0.00016071123536676168,0.074074015021324158,0.0059365322813391685,1.0249589014444156e-16,0.074311520754905422,0.024941748380661009,0.039848464727401736,0.19937031745910644,0.30006647109985352,0.79831112921237946,1
21:08:21.490,1.3891113996505737,-1.9160157442092896,-10.193203926086426,-0.029028456658124924,-0.1829591691493988,0.061252705752849579,-0.048895660787820816,0.11523992568254471,0.0,0.0,0.0037925555370748043,0.0,0.41798824071884155,1.3918836116790771,0.96644443273544312,0.00016071123536676168,0.074074015021324158,0.0059365322813391685,1.0249589014444156e-16,0.074311520754905422,0.024941748380661009,0.039848464727401736,0.19937031745910644,0.30006647109985352,0.79831112921237946,1
21:08:21.533,1.3891113996505737,-1.9160157442092896,-10.193203926086426,-0.029028456658124924,-0.1829591691493988,0.061252705752849579,-0.048895660787820816,0.11523992568254471,0.0,0.0,0.0037925555370748043,0.0,0.41798824071884155,1.3918836116790771,0.96644443273544312,0.00016071123536676168,0.074074126780033112,0.0071071484126150608,1.0249589014444156e-16,0.074414298470007467,0.024941748380661009,0.039848464727401736,0.19937031745910644,0.30006647109985352,0.79831112921237946,1
21:08:21.584,1.3891113996505737,-1.9160157442092896,-10.193203926086426,-0.029028456658124924,-0.1829591691493988,0.061252705752849579,-0.048895660787820816,0.11523992568254471,0.0,0.0,0.0037925555370748043,0.0,0.41798824071884155,1.3918836116790771,0.96644443273544312,0.00016071123536676168,0.074074126780033112,0.0071071484126150608,1.0249589014444156e-16,0.074414298470007467,0.024941748380661009,0.039848464727401736,0.19937031745910644,0.30006647109985352,0.79831112921237946,1
21:08:21.632,1.3891113996505737,-1.9160157442092896,-10.193203926086426,-0.029028456658124924,-0.1829591691493988,0.061252705752849579,-0.048895660787820816,0.11523992568254471,0.0,0.0,0.0037925555370748043,0.0,0.41798824071884155,1.3918836116790771,0.96644443273544312,0.00016071123536676168,0.074074126780033112,0.0071071484126150608,1.0249589014444156e-16,0.074414298470007467,0.024941748380661009,0.039848464727401736,0.19937031745910644,0.30006647109985352,0.79831112921237946,1
21:08:21.688,1.3891113996505737,-1.9160157442092896,-10.193203926086426,-0.029028456658124924,-0.1829591691493988,0.061252705752849579,-0.048895660787820816,0.11523992568254471,0.0,0.0,0.0037925555370748043,0.0,0.41798824071884155,1.3918836116790771,0.96644443273544312,0.00016071123536676168,0.074074126780033112,0.0071071484126150608,1.0249589014444156e-16,0.074414298470007467,0.024941748380661009,0.039848464727401736,0.19937031745910644,0.30006647109985352,0.79831112921237946,1
21:08:21.755,1.3891113996505737,-1.9160157442092896,-10.193203926086426,-0.029028456658124924,-0.1829591691493988,0.061252705752849579,-0.048895660787820816,-0.0055610495619475842,0.0,0.0,0.0037925555370748043,0.15279139578342438,0.058071352541446686,1.3918836116790771,0.96644443273544312,0.00016071123536676168,0.074074126780033112,0.0071071484126150608,1.0249589014444156e-16,0.074414298470007467,0.024941748380661009,0.039848464727401736,0.19937031745910644,0.30006647109985352,0.79831112921237946,1
21:08:21.784,1.0154882669448853,-2.1076173782348633,-9.580078125,0.45859634876251221,-0.67670923471450806,-0.054328486323356628,0.050046142190694809,-0.0055610495619475842,0.0,0.0,0.002802194794639945,0.15279139578342438,0.058071352541446686,1.4538615942001343,0.0,1.1236503124237061,0.074074126780033112,0.0071071484126150608,1.0249589014444156e-16,0.074414298470007467,0.024941748380661009,0.039848464727401736,0.19937031745910644,0.30006647109985352,0.79831112921237946,1
21:08:21.834,1.0154882669448853,-2.1076173782348633,-9.580078125,0.45859634876251221,-0.67670923471450806,-0.054328486323356628,0.050046142190694809,-0.0055610495619475842,0.0,0.0,0.002802194794639945,0.15279139578342438,0.058071352541446686,1.4538615942001343,0.0,1.1236503124237061,0.074074126780033112,0.0071071484126150608,1.0249589014444156e-16,0.074414298470007467,0.024941748380661009,0.039848464727401736,0.19937031745910644,0.30006647109985352,0.79831112921237946,1
21:08:21.892,1.0154882669448853,-2.1076173782348633,-9.580078125,0.45859634876251221,-0.67670923471450806,-0.054328486323356628,0.050046142190694809,-0.0055610495619475842,0.0,0.0,0.002802194794639945,0.15279139578342438,0.058071352541446686,1.4538615942001343,0.0,1.1236503124237061,0.074074126780033112,0.0071071484126150608,1.0249589014444156e-16,0.074414298470007467,0.024941748380661009,0.039848464727401736,0.19937031745910644,0.30006647109985352,0.79831112921237946,1
21:08:21.934,1.0154882669448853,-2.1076173782348633,-9.580078125,0.45859634876251221,-0.67670923471450806,-0.054328486323356628,0.050046142190694809,-0.0055610495619475842,0.0,0.0,0.002802194794639945,0.15279139578342438,0.058071352541446686,1.4538615942001343,0.0,1.1236503124237061,0.074074126780033112,0.0071071484126150608,1.0249589014444156e-16,0.074414298470007467,0.024941748380661009,0.039848464727401736,0.19937031745910644,0.30006647109985352,0.79831112921237946,1
21:08:21.990,1.0154882669448853,-2.1076173782348633,-9.580078125,0.45859634876251221,-0.67670923471450806,-0.054328486323356628,0.050046142190694809,-0.0055610495619475842,0.0,0.0,0.002802194794639945,0.15279139578342438,0.058071352541446686,1.4538615942001343,0.0,1.1236503124237061,0.074074126780033112,0.0071071484126150608,1.0249589014444156e-16,0.074414298470007467,0.024941748380661009,0.039848464727401736,0.19937031745910644,0.30006647109985352,0.79831112921237946,1
21:08:22.047,1.0154882669448853,-2.1076173782348633,-9.580078125,0.45859634876251221,-0.67670923471450806,-0.054328486323356628,0.050046142190694809,-0.0055610495619475842,0.0,0.0,0.002802194794639945,0.15279139578342438,0.058071352541446686,1.4538615942001343,0.0,1.1236503124237061,0.074074126780033112,0.0087575651705265045,1.0249589014444156e-16,0.074590020820083147,0.024941748380661009,0.039848464727401736,0.19937031745910644,0.30006647109985352,0.79831112921237946,1
21:08:22.101,1.0154882669448853,-2.1076173782348633,-9.580078125,0.10918960720300674,0.21571604907512665,0.4380899965763092,0.050046142190694809,0.046019379049539566,0.0,0.00080298777902498841,0.002802194794639945,0.4800599217414856,0.17644126713275909,1.4538615942001343,0.071574456989765167,1.1236503124237061,0.074074126780033112,0.0087575651705265045,1.0249589014444156e-16,0.074590020820083147,0.024941748380661009,0.039848464727401736,0.19937031745910644,0.30006647109985352,0.79831112921237946,1
21:08:22.133,3.7362306118011475,-0.17244140803813934,-11.036250114440918,0.10918960720300674,0.21571604907512665,0.4380899965763092,-0.0049851578660309315,0.046019379049539566,0.0,0.00080298777902498841,0.0041932552121579647,0.4800599217414856,0.17644126713275909,1.3623141050338745,0.071574456989765167,0.16332487761974335,0.074074126780033112,0.0087575651705265045,1.0249589014444156e-16,0.074590020820083147,0.024941748380661009,0.039848464727401736,0.19937031745910644,0.30006647109985352,0.79831112921237946,1
21:08:22.189,3.7362306118011475,-0.17244140803813934,-11.036250114440918,0.10918960720300674,0.21571604907512665,0.4380899965763092,-0.0049851578660309315,0.046019379049539566,0.0,0.00080298777902498841,0.0041932552121579647,0.4800599217414856,0.17644126713275909,1.3623141050338745,0.071574456989765167,0.16332487761974335,0.074074126780033112,0.0087575651705265045,1.0249589014444156e-16,0.074590020820083147,0.024941748380661009,0.039848464727401736,0.19937031745910644,0.30006647109985352,0.79831112921237946,1
21:08:22.235,3.7362306118011475,-0.17244140803813934,-11.036250114440918,0.10918960720300674,0.21571604907512665,0.4380899965763092,-0.0049851578660309315,0.046019379049539566,0.0,0.00080298777902498841,0.0041932552121579647,0.4800599217414856,0.17644126713275909,1.3623141050338745,0.071574456989765167,0.16332487761974335,0.074074126780033112,0.0087575651705265045,1.0249589014444156e-16,0.074590020820083147,0.024941748380661009,0.039848464727401736,0.19937031745910644,0.30006647109985352,0.79831112921237946,1
21:08:22.287,3.7362306118011475,-0.17244140803813934,-11.036250114440918,0.10918960720300674,0.21571604907512665,0.4380899965763092,-0.0049851578660309315,0.046019379049539566,0.0,0.00080298777902498841,0.0041932552121579647,0.4800599217414856,0.17644126713275909,1.3623141050338745,0.071574456989765167,0.16332487761974335,0.074074126780033112,0.0087575651705265045,1.0249589014444156e-16,0.074590020820083147,0.024941748380661009,0.039848464727401736,0.19937031745910644,0.30006647109985352,0.79831112921237946,1
21:08:22.336,3.7362306118011475,-0.17244140803813934,-11.036250114440918,0.10918960720300674,0.21571604907512665,0.4380899965763092,-0.0049851578660309315,0.046019379049539566,0.0,0.00080298777902498841,0.0041932552121579647,0.4800599217414856,0.17644126713275909,1.3623141050338745,0.071574456989765167,0.16332487761974335,0.074074126780033112,0.0087575651705265045,1.0249589014444156e-16,0.074590020820083147,0.024941748380661009,0.039848464727401736,0.19937031745910644,0.30006647109985352,0.79831112921237946,1
21:08:22.392,3.7362306118011475,-0.17244140803813934,-11.036250114440918,0.10918960720300674,0.21571604907512665,0.4380899965763092,-0.0049851578660309315,0.046019379049539566,0.0,0.00080298777902498841,0.0041932552121579647,0.4800599217414856,0.17644126713275909,1.3623141050338745,0.071574456989765167,0.16332487761974335,0.074074126780033112,0.0087575651705265045,1.0249589014444156e-16,0.074590020820083147,0.024941748380661009,0.039848464727401736,0.19937031745910644,0.30006647109985352,0.79831112921237946,1
21:08:22.452,3.4296681880950928,-1.7148340940475464,-7.8556642532348633,-0.29640984535217285,0.19494339823722839,0.074834831058979034,-0.0049851578660309315,0.09299737960100174,0.0,0.0,0.033780895173549652,0.0,0.229524165391922,0.83927595615386963,1.2122592926025391,0.19459038972854614,0.074074126780033112,0.0087575651705265045,1.0249589014444156e-16,0.074590020820083147,0.024941748380661009,0.039848464727401736,0.19937031745910644,0.30006647109985352,0.79831112921237946,1
21:08:22.485,3.4296681880950928,-1.7148340940475464,-7.8556642532348633,-0.29640984535217285,0.19494339823722839,0.074834831058979034,-0.018599335104227066,0.09299737960100174,0.0,0.0,0.033780895173549652,0.0,0.229524165391922,0.83927595615386963,1.2122592926025391,0.19459038972854614,0.074074126780033112,0.0087575651705265045,1.0249589014444156e-16,0.074590020820083147,0.024941748380661009,0.039848464727401736,0.19937031745910644,0.30006647109985352,0.79831112921237946,1
21:08:22.535,3.4296681880950928,-1.7148340940475464,-7.8556642532348633,-0.29640984535217285,0.19494339823722839,0.074834831058979034,-0.018599335104227066,0.09299737960100174,0.0,0.0,0.033780895173549652,0.0,0.229524165391922,0.83927595615386963,1.2122592926025391,0.19459038972854614,0.074074126780033112,0.0087575651705265045,1.0249589014444156e-16,0.074590020820083147,0.024941748380661009,0.039848464727401736,0.19937031745910644,0.30006647109985352,0.79831112921237946,1
21:08:22.587,3.4296681880950928,-1.7148340940475464,-7.8556642532348633,-0.29640984535217285,0.19494339823722839,0.074834831058979034,-0.018599335104227066,0.09299737960100174,0.0,0.0,0.033780895173549652,0.0,0.229524165391922,0.83927595615386963,1.2122592926025391,0.19459038972854614,0.074074126780033112,0.014205406419932842,1.0249589014444156e-16,0.075423934064591774,0.024941748380661009,0.039848464727401736,0.19937031745910644,0.30006647109985352,0.79831112921237946,1
21:08:22.640,3.4296681880950928,-1.7148340940475464,-7.8556642532348633,-0.29640984535217285,0.19494339823722839,0.074834831058979034,-0.018599335104227066,0.09299737960100174,0.0,0.0,0.033780895173549652,0.0,0.229524165391922,0.83927595615386963,1.2122592926025391,0.19459038972854614,0.074074126780033112,0.014205406419932842,1.0249589014444156e-16,0.075423934064591774,0.024941748380661009,0.039848464727401736,0.19937031745910644,0.30006647109985352,0.79831112921237946,1
21:08:22.683,3.4296681880950928,-1.7148340940475464,-7.8556642532348633,-0.29640984535217285,0.19494339823722839,0.074834831058979034,-0.018599335104227066,0.09299737960100174,0.0,0.0,0.033780895173549652,0.0,0.229524165391922,0.83927595615386963,1.2122592926025391,0.19459038972854614,0.074074126780033112,0.014205406419932842,1.0249589014444156e-16,0.075423934064591774,0.024941748380661009,0.039848464727401736,0.19937031745910644,0.30006647109985352,0.79831112921237946,1
21:08:22.769,3.4296681880950928,-1.7148340940475464,-7.8556642532348633,-0.29640984535217285,0.19494339823722839,0.074834831058979034,-0.018599335104227066,0.018599335104227066,0.0,0.0,0.033780895173549652,0.22638903558254242,0.13958092033863068,0.83927595615386963,1.2122592926025391,0.19459038972854614,0.074074126780033112,0.014205406419932842,1.0249589014444156e-16,0.075423934064591774,0.024941748380661009,0.039848464727401736,0.19937031745910644,0.30006647109985352,0.79831112921237946,1
21:08:22.788,-0.45026367902755737,-1.4274317026138306,-9.819580078125,0.60373860597610474,-0.57604175806045532,-0.065247446298599243,0.020708736032247543,0.018599335104227066,0.0,0.0,0.0026060407981276512,0.22638903558254242,0.13958092033863068,1.0464653968811035,0.14322628080844879,1.1705139875411987,0.074074126780033112,0.014205406419932842,1.0249589014444156e-16,0.075423934064591774,0.024941748380661009,0.039848464727401736,0.19937031745910644,0.30006647109985352,0.79831112921237946,1
21:08:22.843,-0.45026367902755737,-1.4274317026138306,-9.819580078125,0.60373860597610474,-0.57604175806045532,-0.065247446298599243,0.020708736032247543,0.018599335104227066,0.0,0.0,0.0026060407981276512,0.22638903558254242,0.13958092033863068,1.0464653968811035,0.14322628080844879,1.1705139875411987,0.074074126780033112,0.014205406419932842,1.0249589014444156e-16,0.075423934064591774,0.024941748380661009,0.039848464727401736,0.19937031745910644,0.30006647109985352,0.79831112921237946,1
21:08:22.898,-0.45026367902755737,-1.4274317026138306,-9.819580078125,0.60373860597610474,-0.57604175806045532,-0.065247446298599243,0.020708736032247543,0.018599335104227066,0.0,0.0,0.0026060407981276512,0.22638903558254242,0.13958092033863068,1.0464653968811035,0.14322628080844879,1.1705139875411987,0.074074126780033112,0.014205406419932842,1.0249589014444156e-16,0.075423934064591774,0.024941748380661009,0.039848464727401736,0.19937031745910644,0.30006647109985352,0.79831112921237946,1
21:08:22.942,-0.45026367902755737,-1.4274317026138306,-9.819580078125,0.60373860597610474,-0.57604175806045532,-0.065247446298599243,0.020708736032247543,0.018599335104227066,0.0,0.0,0.0026060407981276512,0.22638903558254242,0.13958092033863068,1.0464653968811035,0.14322628080844879,1.1705139875411987,0.074074126780033112,0.014205406419932842,1.0249589014444156e-16,0.075423934064591774,0.024941748380661009,0.039848464727401736,0.19937031745910644,0.30006647109985352,0.79831112921237946,1
21:08:22.991,-0.45026367902755737,-1.4274317026138306,-9.819580078125,0.60373860597610474,-0.57604175806045532,-0.065247446298599243,0.020708736032247543,0.018599335104227066,0.0,0.0,0.0026060407981276512,0.22638903558254242,0.13958092033863068,1.0464653968811035,0.14322628080844879,1.1705139875411987,0.074074126780033112,0.014205406419932842,1.0249589014444156e-16,0.075423934064591774,0.024941748380661009,0.039848464727401736,0.19937031745910644,0.30006647109985352,0.79831112921237946,1
21:08:23.046,-0.45026367902755737,-1.4274317026138306,-9.819580078125,0.60373860597610474,-0.57604175806045532,-0.065247446298599243,0.020708736032247543,0.018599335104227066,0.0,0.0,0.0026060407981276512,0.22638903558254242,0.13958092033863068,1.0464653968811035,0.14322628080844879,1.1705139875411987,0.074074126780033112,0.014205406419932842,1.0249589014444156e-16,0.075423934064591774,0.024941748380661009,0.039848464727401736,0.19937031745910644,0.30006647109985352,0.79831112921237946,1
21:08:23.121,1.3986914157867432,1.3603711128234863,-9.9249610900878906,-0.010386328212916851,-0.062584288418292999,0.44128578901290894,0.020708736032247543,0.03719884529709816,0.39513713121414185,0.61947810649871826,0.081744745373725891,1.2638071775436401,0.0,1.0464653968811035,0.0,0.0010010800324380398,0.037037063390016556,-0.001776963472366333,1.0249589014444156e-16,0.037079666445886873,0.024941748380661009,0.039848464727401736,0.19937031745910644,0.30006647109985352,0.79831112921237946,1
21:08:23.145,1.3986914157867432,1.3603711128234863,-9.9249610900878906,-0.010386328212916851,-0.062584288418292999,0.44128578901290894,-0.018791023641824722,0.03719884529709816,0.39513713121414185,0.61947810649871826,0.081744745373725891,1.2638071775436401,0.0,0.0,0.0,0.0010010800324380398,0.037037063390016556,-0.001776963472366333,1.0249589014444156e-16,0.037079666445886873,0.024941748380661009,0.039848464727401736,0.19937031745910644,0.30006647109985352,0.79831112921237946,1
21:08:23.214,1.3986914157867432,1.3603711128234863,-9.9249610900878906,-0.010386328212916851,-0.062584288418292999,0.44128578901290894,-0.018791023641824722,0.03719884529709816,0.39513713121414185,0.61947810649871826,0.081744745373725891,1.2638071775436401,0.0,0.0,0.0,0.0010010800324380398,0.037037063390016556,-0.001776963472366333,1.0249589014444156e-16,0.037079666445886873,0.024941748380661009,0.039848464727401736,0.19937031745910644,0.30006647109985352,0.79831112921237946,1
21:08:23.257,1.3986914157867432,1.3603711128234863,-9.9249610900878906,-0.010386328212916851,-0.062584288418292999,0.44128578901290894,-0.018791023641824722,0.03719884529709816,0.39513713121414185,0.61947810649871826,0.081744745373725891,1.2638071775436401,0.0,0.0,0.0,0.0010010800324380398,0.037037063390016556,-0.001776963472366333,1.0249589014444156e-16,0.037079666445886873,0.024941748380661009,0.039848464727401736,0.19937031745910644,0.30006647109985352,0.79831112921237946,1
21:08:23.295,1.3986914157867432,1.3603711128234863,-9.9249610900878906,-0.010386328212916851,-0.062584288418292999,0.44128578901290894,-0.018791023641824722,0.03719884529709816,0.39513713121414185,0.61947810649871826,0.081744745373725891,1.2638071775436401,0.0,0.0,0.0,0.0010010800324380398,0.037037063390016556,-0.001776963472366333,1.0249589014444156e-16,0.037079666445886873,0.024941748380661009,0.039848464727401736,0.19937031745910644,0.30006647109985352,0.79831112921237946,1
21:08:23.369,1.3986914157867432,1.3603711128234863,-9.9249610900878906,-0.010386328212916851,-0.062584288418292999,0.44128578901290894,-0.018791023641824722,0.03719884529709816,0.39513713121414185,0.61947810649871826,0.081744745373725891,1.2638071775436401,0.0,0.0,0.0,0.0010010800324380398,0.037037063390016556,-0.001776963472366333,1.0249589014444156e-16,0.037079666445886873,0.024941748380661009,0.039848464727401736,0.19937031745910644,0.30006647109985352,0.79831112921237946,1
21:08:23.445,1.3986914157867432,1.3603711128234863,-9.9249610900878906,-0.010386328212916851,-0.062584288418292999,0.44128578901290894,-0.018791023641824722,0.062893219292163849,0.39513713121414185,0.61947810649871826,0.081744745373725891,0.0,0.3026045560836792,0.0,0.0,0.0010010800324380398,0.037037063390016556,-0.001776963472366333,1.0249589014444156e-16,0.037079666445886873,0.024941748380661009,0.039848464727401736,0.19937031745910644,0.30006647109985352,0.79831112921237946,1
21:08:23.474,-1.0825488567352295,-0.49816408753395081,-14.188096046447754,-0.035420041531324387,0.33049830794334412,0.049002163112163544,-0.053305450826883316,0.062893219292163849,0.0,0.0,0.044591654092073441,0.0,0.3026045560836792,1.5996956825256348,1.0839172601699829,0.1317543238401413,0.037037063390016556,-0.001776963472366333,1.0249589014444156e-16,0.037079666445886873,0.024941748380661009,0.039848464727401736,0.19937031745910644,0.30006647109985352,0.79831112921237946,1
21:08:23.546,-1.0825488567352295,-0.49816408753395081,-14.188096046447754,-0.035420041531324387,0.33049830794334412,0.049002163112163544,-0.053305450826883316,0.062893219292163849,0.0,0.0,0.044591654092073441,0.0,0.3026045560836792,1.5996956825256348,1.0839172601699829,0.1317543238401413,0.037037063390016556,-0.001776963472366333,1.0249589014444156e-16,0.037079666445886873,0.024941748380661009,0.039848464727401736,0.19937031745910644,0.30006647109985352,0.79831112921237946,1
21:08:23.575,-1.0825488567352295,-0.49816408753395081,-14.188096046447754,-0.035420041531324387,0.33049830794334412,0.049002163112163544,-0.053305450826883316,0.062893219292163849,0.0,0.0,0.044591654092073441,0.0,0.3026045560836792,1.5996956825256348,1.0839172601699829,0.1317543238401413,0.037037063390016556,-0.001776963472366333,1.0249589014444156e-16,0.037079666445886873,0.024941748380661009,0.039848464727401736,0.19937031745910644,0.30006647109985352,0.79831112921237946,1
21:08:23.615,-1.0825488567352295,-0.49816408753395081,-14.188096046447754,-0.035420041531324387,0.33049830794334412,0.049002163112163544,-0.053305450826883316,0.062893219292163849,0.0,0.0,0.044591654092073441,0.0,0.3026045560836792,1.5996956825256348,1.0839172601699829,0.1317543238401413,0.037037063390016556,-0.001776963472366333,1.0249589014444156e-16,0.037079666445886873,0.024941748380661009,0.039848464727401736,0.19937031745910644,0.30006647109985352,0.79831112921237946,1
21:08:23.673,-1.0825488567352295,-0.49816408753395081,-14.188096046447754,-0.035420041531324387,0.33049830794334412,0.049002163112163544,-0.053305450826883316,0.062893219292163849,0.0,0.0,0.044591654092073441,0.0,0.3026045560836792,1.5996956825256348,1.0839172601699829,0.1317543238401413,0.0,-0.036111157387495041,1.0249589014444156e-16,0.036111157387495041,0.024941748380661009,0.039848464727401736,0.19937031745910644,0.30006647109985352,0.79831112921237946,1
21:08:23.728,-1.0825488567352295,-0.49816408753395081,-14.188096046447754,-0.035420041531324387,0.33049830794334412,0.049002163112163544,-0.053305450826883316,0.062893219292163849,0.0,0.0,0.044591654092073441,0.0,0.3026045560836792,1.5996956825256348,1.0839172601699829,0.1317543238401413,0.0,-0.036111157387495041,1.0249589014444156e-16,0.036111157387495041,0.024941748380661009,0.039848464727401736,0.19937031745910644,0.30006647109985352,0.79831112921237946,1
21:08:23.785,-0.34488281607627869,-1.0825488567352295,-14.178516387939453,0.052996907383203506,-0.076699040830135345,0.072171665728092194,-0.053305450826883316,0.05311376228928566,0.057855464518070221,0.024372994899749756,0.48158881068229675,0.36338382959365845,0.052279558032751083,1.5996956825256348,0.37402421236038208,0.19047224521636963,0.0,-0.036111157387495041,1.0249589014444156e-16,0.036111157387495041,0.024941748380661009,0.039848464727401736,0.19937031745910644,0.30006647109985352,0.79831112921237946,1
21:08:23.820,-0.34488281607627869,-1.0825488567352295,-14.178516387939453,0.052996907383203506,-0.076699040830135345,0.072171665728092194,-0.039499584585428238,0.05311376228928566,0.057855464518070221,0.024372994899749756,0.48158881068229675,0.36338382959365845,0.052279558032751083,0.088403664529323578,0.37402421236038208,0.19047224521636963,0.0,-0.036111157387495041,1.0249589014444156e-16,0.036111157387495041,0.024941748380661009,0.039848464727401736,0.19937031745910644,0.30006647109985352,0.79831112921237946,1
