timestamp,accel_x,accel_y,accel_z,gyro_x,gyro_y,gyro_z,angle_x,angle_y,lfoot_fl,lfoot_fr,lfoot_rl,lfoot_rr,rfoot_fl,rfoot_fr,rfoot_rl,rfoot_rr,vx,vy,wz,vtotal,StepHeight,MaxStepX,MaxStepY,MaxStepTheta,Frequency,stable
21:14:27.920,1.0250684022903442,0.086220704019069672,-9.9920215606689453,0.0,0.001065264455974102,0.00079894834198057652,-0.0067108315415680408,0.066152878105640411,0.11026299744844437,0.0,1.3328750133514404,0.13684834539890289,0.008052527904510498,0.36032223701477051,0.47096702456474304,0.80740129947662354,0.0,0.0,0.0,0.0,0.024941748380661009,0.039848464727401736,0.19937031745910644,0.30006647109985352,0.79831112921237946,1
21:14:27.961,1.0250684022903442,0.086220704019069672,-9.9920215606689453,0.0,0.001065264455974102,0.00079894834198057652,-0.0067108315415680408,0.066152878105640411,0.11026299744844437,0.0,1.3328750133514404,0.13684834539890289,0.008052527904510498,0.36032223701477051,0.47096702456474304,0.80740129947662354,0.0,0.0,0.0,0.0,0.024941748380661009,0.039848464727401736,0.19937031745910644,0.30006647109985352,0.79831112921237946,1
21:14:28.017,1.0250684022903442,0.086220704019069672,-9.9920215606689453,0.0,0.001065264455974102,0.00079894834198057652,-0.0067108315415680408,0.066152878105640411,0.11026299744844437,0.0,1.3328750133514404,0.13684834539890289,0.008052527904510498,0.36032223701477051,0.47096702456474304,0.80740129947662354,0.0,0.0,0.0,0.0,0.024941748380661009,0.039848464727401736,0.19937031745910644,0.30006647109985352,0.79831112921237946,1
21:14:28.102,1.0250684022903442,0.086220704019069672,-9.9920215606689453,0.0,0.001065264455974102,0.00079894834198057652,-0.0067108315415680408,0.066152878105640411,0.11026299744844437,0.0,1.3328750133514404,0.13684834539890289,0.008052527904510498,0.36032223701477051,0.47096702456474304,0.80740129947662354,0.0,0.0,0.0,0.0,0.024941748380661009,0.039848464727401736,0.19937031745910644,0.30006647109985352,0.79831112921237946,1
21:14:28.124,0.68976563215255737,-0.086220704019069672,-10.039922714233398,-0.001065264455974102,0.018642127513885498,-0.016245283186435699,-0.0061357659287750721,0.066536255180835724,0.1179969310760498,0.0,1.3328750133514404,0.12375857681035995,0.0054712314158678055,0.36692985892295837,0.47441691160202026,0.77771824598312378,0.0,0.0,0.0,0.0,0.024941748380661009,0.039848464727401736,0.19937031745910644,0.30006647109985352,0.79831112921237946,1
21:14:28.174,0.68976563215255737,-0.086220704019069672,-10.039922714233398,-0.001065264455974102,0.018642127513885498,-0.016245283186435699,-0.0061357659287750721,0.066536255180835724,0.1179969310760498,0.0,1.3328750133514404,0.12375857681035995,0.0054712314158678055,0.36692985892295837,0.47441691160202026,0.77771824598312378,0.0,0.0,0.0,0.0,0.024941748380661009,0.039848464727401736,0.19937031745910644,0.30006647109985352,0.79831112921237946,1
21:14:28.222,0.68976563215255737,-0.086220704019069672,-10.039922714233398,-0.001065264455974102,0.018642127513885498,-0.016245283186435699,-0.0061357659287750721,0.066536255180835724,0.1179969310760498,0.0,1.3328750133514404,0.12375857681035995,0.0054712314158678055,0.36692985892295837,0.47441691160202026,0.77771824598312378,0.0,0.0,0.0,0.0,0.024941748380661009,0.039848464727401736,0.19937031745910644,0.30006647109985352,0.79831112921237946,1
21:14:28.277,0.68976563215255737,-0.086220704019069672,-10.039922714233398,-0.001065264455974102,0.018642127513885498,-0.016245283186435699,-0.0061357659287750721,0.066536255180835724,0.1179969310760498,0.0,1.3328750133514404,0.12375857681035995,0.0054712314158678055,0.36692985892295837,0.47441691160202026,0.77771824598312378,0.0,0.0,0.0,0.0,0.024941748380661009,0.039848464727401736,0.19937031745910644,0.30006647109985352,0.79831112921237946,1
21:14:28.320,0.68976563215255737,-0.086220704019069672,-10.039922714233398,-0.001065264455974102,0.018642127513885498,-0.016245283186435699,-0.0061357659287750721,0.066536255180835724,0.1179969310760498,0.0,1.3328750133514404,0.12375857681035995,0.0054712314158678055,0.36692985892295837,0.47441691160202026,0.77771824598312378,0.0,0.0,0.0,0.0,0.024941748380661009,0.039848464727401736,0.19937031745910644,0.30006647109985352,0.79831112921237946,1
21:14:28.373,0.68976563215255737,-0.086220704019069672,-10.039922714233398,-0.001065264455974102,0.018642127513885498,-0.016245283186435699,-0.0061357659287750721,0.066536255180835724,0.1179969310760498,0.0,1.3328750133514404,0.12375857681035995,0.0054712314158678055,0.36692985892295837,0.47441691160202026,0.77771824598312378,0.0,0.0,0.0,0.0,0.024941748380661009,0.039848464727401736,0.19937031745910644,0.30006647109985352,0.79831112921237946,1
21:14:28.450,0.68976563215255737,-0.086220704019069672,-10.039922714233398,-0.001065264455974102,0.21145498752593994,-0.016245283186435699,-0.0061357659287750721,0.082451172173023224,0.1179969310760498,0.0,1.3328750133514404,1.0706346035003662,0.050626672804355621,0.36692985892295837,1.6480776071548462,0.77771824598312378,0.0,0.0,0.0,0.0,0.024941748380661009,0.039848464727401736,0.19937031745910644,0.30006647109985352,0.79831112921237946,1
21:14:28.478,1.0921289920806885,0.21076172590255737,-10.116562843322754,-0.040746364742517471,0.21145498752593994,0.15819177031517029,-0.010546032339334488,0.082451172173023224,0.0,0.12855702638626099,0.0032755627762526274,1.0706346035003662,0.050626672804355621,0.0,1.6480776071548462,0.0077129518613219261,0.0,0.0,0.0,0.0,0.024941748380661009,0.039848464727401736,0.19937031745910644,0.30006647109985352,0.79831112921237946,1
21:14:28.524,1.0921289920806885,0.21076172590255737,-10.116562843322754,-0.040746364742517471,0.21145498752593994,0.15819177031517029,-0.010546032339334488,0.082451172173023224,0.0,0.12855702638626099,0.0032755627762526274,1.0706346035003662,0.050626672804355621,0.0,1.6480776071548462,0.0077129518613219261,0.0,0.0,0.0,0.0,0.024941748380661009,0.039848464727401736,0.19937031745910644,0.30006647109985352,0.79831112921237946,1
21:14:28.577,1.0921289920806885,0.21076172590255737,-10.116562843322754,-0.040746364742517471,0.21145498752593994,0.15819177031517029,-0.010546032339334488,0.082451172173023224,0.0,0.12855702638626099,0.0032755627762526274,1.0706346035003662,0.050626672804355621,0.0,1.6480776071548462,0.0077129518613219261,0.0,0.0,0.0,0.0,0.024941748380661009,0.039848464727401736,0.19937031745910644,0.30006647109985352,0.79831112921237946,1
21:14:28.623,1.0921289920806885,0.21076172590255737,-10.116562843322754,-0.040746364742517471,0.21145498752593994,0.15819177031517029,-0.010546032339334488,0.082451172173023224,0.0,0.12855702638626099,0.0032755627762526274,1.0706346035003662,0.050626672804355621,0.0,1.6480776071548462,0.0077129518613219261,0.0,0.0,0.0,0.0,0.024941748380661009,0.039848464727401736,0.19937031745910644,0.30006647109985352,0.79831112921237946,1
21:14:28.677,1.0921289920806885,0.21076172590255737,-10.116562843322754,-0.040746364742517471,0.21145498752593994,0.15819177031517029,-0.010546032339334488,0.082451172173023224,0.0,0.12855702638626099,0.0032755627762526274,1.0706346035003662,0.050626672804355621,0.0,1.6480776071548462,0.0077129518613219261,0.0,0.0,0.0,0.0,0.024941748380661009,0.039848464727401736,0.19937031745910644,0.30006647109985352,0.79831112921237946,1
21:14:28.740,1.0921289920806885,0.21076172590255737,-10.116562843322754,-0.040746364742517471,0.21145498752593994,0.15819177031517029,-0.010546032339334488,0.082451172173023224,0.0,0.12855702638626099,0.0032755627762526274,1.0706346035003662,0.050626672804355621,0.0,1.6480776071548462,0.0077129518613219261,0.0,0.0,0.0,0.0,0.024941748380661009,0.039848464727401736,0.19937031745910644,0.30006647109985352,0.79831112921237946,1
21:14:28.784,1.0921289920806885,0.21076172590255737,-10.116562843322754,-0.059654809534549713,0.44794371724128723,0.15819177031517029,-0.010546032339334488,0.24792939424514771,0.0,0.12855702638626099,0.0032755627762526274,0.90104413032531738,0.46420419216156006,0.0,0.69093179702758789,0.0077129518613219261,0.0,0.0,0.0,0.0,0.024941748380661009,0.039848464727401736,0.19937031745910644,0.30006647109985352,0.79831112921237946,1
21:14:28.834,3.381767749786377,0.30656251311302185,-9.6183986663818359,-0.059654809534549713,0.44794371724128723,0.1829591691493988,-0.0268443264067173,0.24792939424514771,0.0,0.75245648622512817,0.0022156289778649807,0.90104413032531738,0.46420419216156006,0.0,0.69093179702758789,0.0036271449644118547,0.0,0.0,0.0,0.0,0.024941748380661009,0.039848464727401736,0.19937031745910644,0.30006647109985352,0.79831112921237946,1
21:14:28.875,3.381767749786377,0.30656251311302185,-9.6183986663818359,-0.059654809534549713,0.44794371724128723,0.1829591691493988,-0.0268443264067173,0.24792939424514771,0.0,0.75245648622512817,0.0022156289778649807,0.90104413032531738,0.46420419216156006,0.0,0.69093179702758789,0.0036271449644118547,0.0,0.0,0.0,0.0,0.024941748380661009,0.039848464727401736,0.19937031745910644,0.30006647109985352,0.79831112921237946,1
21:14:28.928,3.381767749786377,0.30656251311302185,-9.6183986663818359,-0.059654809534549713,0.44794371724128723,0.1829591691493988,-0.0268443264067173,0.24792939424514771,0.0,0.75245648622512817,0.0022156289778649807,0.90104413032531738,0.46420419216156006,0.0,0.69093179702758789,0.0036271449644118547,0.0,0.0,0.0,0.0,0.024941748380661009,0.039848464727401736,0.19937031745910644,0.30006647109985352,0.79831112921237946,1
21:14:28.979,3.381767749786377,0.30656251311302185,-9.6183986663818359,-0.059654809534549713,0.44794371724128723,0.1829591691493988,-0.0268443264067173,0.24792939424514771,0.0,0.75245648622512817,0.0022156289778649807,0.90104413032531738,0.46420419216156006,0.0,0.69093179702758789,0.0036271449644118547,0.0,0.0,0.0,0.0,0.024941748380661009,0.039848464727401736,0.19937031745910644,0.30006647109985352,0.79831112921237946,1
21:14:29.024,3.381767749786377,0.30656251311302185,-9.6183986663818359,-0.059654809534549713,0.44794371724128723,0.1829591691493988,-0.0268443264067173,0.24792939424514771,0.0,0.75245648622512817,0.0022156289778649807,0.90104413032531738,0.46420419216156006,0.0,0.69093179702758789,0.0036271449644118547,0.0,0.0,0.0,0.0,0.024941748380661009,0.039848464727401736,0.19937031745910644,0.30006647109985352,0.79831112921237946,1
21:14:29.107,3.381767749786377,0.30656251311302185,-9.6183986663818359,-0.059654809534549713,0.44794371724128723,0.1829591691493988,-0.0268443264067173,0.24792939424514771,0.0,0.75245648622512817,0.0022156289778649807,0.90104413032531738,0.46420419216156006,0.0,0.69093179702758789,0.0036271449644118547,0.0,0.0,0.0,0.0,0.024941748380661009,0.039848464727401736,0.19937031745910644,0.30006647109985352,0.79831112921237946,1
21:14:29.134,2.1459376811981201,0.50774413347244263,-10.202783584594727,0.0463390052318573,-1.3848438262939453,-0.21145498752593994,-0.023776356130838394,0.20421105623245239,0.0,0.87436580657958984,0.0033151770476251841,0.81514394283294678,0.50703531503677368,0.0,0.6641615629196167,0.0022798101417720318,0.0,0.0,0.0,0.0,0.024941748380661009,0.039848464727401736,0.19937031745910644,0.30006647109985352,0.79831112921237946,1
21:14:29.183,2.1459376811981201,0.50774413347244263,-10.202783584594727,0.0463390052318573,-1.3848438262939453,-0.21145498752593994,-0.023776356130838394,0.20421105623245239,0.0,0.87436580657958984,0.0033151770476251841,0.81514394283294678,0.50703531503677368,0.0,0.6641615629196167,0.0022798101417720318,0.0,0.0,1.2417634920325327e-08,1.2417634920325327e-08,0.024941748380661009,0.039848464727401736,0.19937031745910644,0.30006647109985352,0.79831112921237946,1
21:14:29.230,2.1459376811981201,0.50774413347244263,-10.202783584594727,0.0463390052318573,-1.3848438262939453,-0.21145498752593994,-0.023776356130838394,0.20421105623245239,0.0,0.87436580657958984,0.0033151770476251841,0.81514394283294678,0.50703531503677368,0.0,0.6641615629196167,0.0022798101417720318,0.0,0.0,1.2417634920325327e-08,1.2417634920325327e-08,0.024941748380661009,0.039848464727401736,0.19937031745910644,0.30006647109985352,0.79831112921237946,1
21:14:29.281,2.1459376811981201,0.50774413347244263,-10.202783584594727,0.0463390052318573,-1.3848438262939453,-0.21145498752593994,-0.023776356130838394,0.20421105623245239,0.0,0.87436580657958984,0.0033151770476251841,0.81514394283294678,0.50703531503677368,0.0,0.6641615629196167,0.0022798101417720318,0.0,0.0,1.2417634920325327e-08,1.2417634920325327e-08,0.024941748380661009,0.039848464727401736,0.19937031745910644,0.30006647109985352,0.79831112921237946,1
21:14:29.328,2.1459376811981201,0.50774413347244263,-10.202783584594727,0.0463390052318573,-1.3848438262939453,-0.21145498752593994,-0.023776356130838394,0.20421105623245239,0.0,0.87436580657958984,0.0033151770476251841,0.81514394283294678,0.50703531503677368,0.0,0.6641615629196167,0.0022798101417720318,0.0,0.0,1.2417634920325327e-08,1.2417634920325327e-08,0.024941748380661009,0.039848464727401736,0.19937031745910644,0.30006647109985352,0.79831112921237946,1
21:14:29.381,2.1459376811981201,0.50774413347244263,-10.202783584594727,0.0463390052318573,-1.3848438262939453,-0.21145498752593994,-0.023776356130838394,0.20421105623245239,0.0,0.87436580657958984,0.0033151770476251841,0.81514394283294678,0.50703531503677368,0.0,0.6641615629196167,0.0022798101417720318,0.0,0.0,1.2417634920325327e-08,1.2417634920325327e-08,0.024941748380661009,0.039848464727401736,0.19937031745910644,0.30006647109985352,0.79831112921237946,1
21:14:29.455,2.1459376811981201,0.50774413347244263,-10.202783584594727,0.0079894829541444778,0.23595607280731201,-0.21145498752593994,-0.023776356130838394,0.046211067587137222,0.0,0.87436580657958984,0.0033151770476251841,0.9645581841468811,0.36395108699798584,0.0,1.1321984529495239,0.0022798101417720318,0.0,0.0,1.2417634920325327e-08,1.2417634920325327e-08,0.024941748380661009,0.039848464727401736,0.19937031745910644,0.30006647109985352,0.79831112921237946,1
21:14:29.479,0.78556644916534424,0.31614258885383606,-9.9632816314697266,0.0079894829541444778,0.23595607280731201,-0.037816889584064484,-0.018982712179422379,0.046211067587137222,0.0,0.6139952540397644,0.0031568720005452633,0.9645581841468811,0.36395108699798584,0.0,1.1321984529495239,0.0022516031749546528,0.0,0.0,1.2417634920325327e-08,1.2417634920325327e-08,0.024941748380661009,0.039848464727401736,0.19937031745910644,0.30006647109985352,0.79831112921237946,1
21:14:29.528,0.78556644916534424,0.31614258885383606,-9.9632816314697266,0.0079894829541444778,0.23595607280731201,-0.037816889584064484,-0.018982712179422379,0.046211067587137222,0.0,0.6139952540397644,0.0031568720005452633,0.9645581841468811,0.36395108699798584,0.0,1.1321984529495239,0.0022516031749546528,0.0,0.0,1.2417634920325327e-08,1.2417634920325327e-08,0.024941748380661009,0.039848464727401736,0.19937031745910644,0.30006647109985352,0.79831112921237946,1
21:14:29.586,0.78556644916534424,0.31614258885383606,-9.9632816314697266,0.0079894829541444778,0.23595607280731201,-0.037816889584064484,-0.018982712179422379,0.046211067587137222,0.0,0.6139952540397644,0.0031568720005452633,0.9645581841468811,0.36395108699798584,0.0,1.1321984529495239,0.0022516031749546528,0.0,0.0,1.2417634920325327e-08,1.2417634920325327e-08,0.024941748380661009,0.039848464727401736,0.19937031745910644,0.30006647109985352,0.79831112921237946,1
21:14:29.630,0.78556644916534424,0.31614258885383606,-9.9632816314697266,0.0079894829541444778,0.23595607280731201,-0.037816889584064484,-0.018982712179422379,0.046211067587137222,0.0,0.6139952540397644,0.0031568720005452633,0.9645581841468811,0.36395108699798584,0.0,1.1321984529495239,0.0022516031749546528,0.0,0.0,1.2417634920325327e-08,1.2417634920325327e-08,0.024941748380661009,0.039848464727401736,0.19937031745910644,0.30006647109985352,0.79831112921237946,1
21:14:29.681,0.78556644916534424,0.31614258885383606,-9.9632816314697266,0.0079894829541444778,0.23595607280731201,-0.037816889584064484,-0.018982712179422379,0.046211067587137222,0.0,0.6139952540397644,0.0031568720005452633,0.9645581841468811,0.36395108699798584,0.0,1.1321984529495239,0.0022516031749546528,0.0,0.0,1.2417634920325327e-08,1.2417634920325327e-08,0.024941748380661009,0.039848464727401736,0.19937031745910644,0.30006647109985352,0.79831112921237946,1
21:14:29.739,0.78556644916534424,0.31614258885383606,-9.9632816314697266,0.0079894829541444778,0.23595607280731201,-0.037816889584064484,-0.018982712179422379,0.046211067587137222,0.0,0.6139952540397644,0.0031568720005452633,0.9645581841468811,0.36395108699798584,0.0,1.1321984529495239,0.0022516031749546528,0.032592613250017166,0.006933609489351511,1.2417634920325327e-08,0.033321965413465243,0.024941748380661009,0.039848464727401736,0.19937031745910644,0.30006647109985352,0.79831112921237946,1
21:14:29.790,0.78556644916534424,0.31614258885383606,-9.9632816314697266,0.0079894829541444778,0.23595607280731201,-0.037816889584064484,-0.018982712179422379,0.098366089165210724,0.0,0.6139952540397644,0.0031568720005452633,0.70607072114944458,0.44296538829803467,0.0,1.2412470579147339,0.0022516031749546528,0.032592613250017166,0.006933609489351511,1.2417634920325327e-08,0.033321965413465243,0.024941748380661009,0.039848464727401736,0.19937031745910644,0.30006647109985352,0.79831112921237946,1
21:14:29.828,1.1879297494888306,0.46942386031150818,-9.8866415023803711,-0.11105381697416306,-0.073236934840679169,-0.022903185337781906,-0.037773910909891129,0.098366089165210724,0.0,0.56506043672561646,0.0034341730643063784,0.70607072114944458,0.44296538829803467,0.0,1.2412470579147339,0.0021670726127922535,0.032592613250017166,0.006933609489351511,1.2417634920325327e-08,0.033321965413465243,0.024941748380661009,0.039848464727401736,0.19937031745910644,0.30006647109985352,0.79831112921237946,1
21:14:29.884,1.1879297494888306,0.46942386031150818,-9.8866415023803711,-0.11105381697416306,-0.073236934840679169,-0.022903185337781906,-0.037773910909891129,0.098366089165210724,0.0,0.56506043672561646,0.0034341730643063784,0.70607072114944458,0.44296538829803467,0.0,1.2412470579147339,0.0021670726127922535,0.032592613250017166,0.006933609489351511,1.2417634920325327e-08,0.033321965413465243,0.024941748380661009,0.039848464727401736,0.19937031745910644,0.30006647109985352,0.79831112921237946,1
21:14:29.930,1.1879297494888306,0.46942386031150818,-9.8866415023803711,-0.11105381697416306,-0.073236934840679169,-0.022903185337781906,-0.037773910909891129,0.098366089165210724,0.0,0.56506043672561646,0.0034341730643063784,0.70607072114944458,0.44296538829803467,0.0,1.2412470579147339,0.0021670726127922535,0.032592613250017166,0.006933609489351511,1.2417634920325327e-08,0.033321965413465243,0.024941748380661009,0.039848464727401736,0.19937031745910644,0.30006647109985352,0.79831112921237946,1
21:14:29.986,1.1879297494888306,0.46942386031150818,-9.8866415023803711,-0.11105381697416306,-0.073236934840679169,-0.022903185337781906,-0.037773910909891129,0.098366089165210724,0.0,0.56506043672561646,0.0034341730643063784,0.70607072114944458,0.44296538829803467,0.0,1.2412470579147339,0.0021670726127922535,0.032592613250017166,0.006933609489351511,1.2417634920325327e-08,0.033321965413465243,0.024941748380661009,0.039848464727401736,0.19937031745910644,0.30006647109985352,0.79831112921237946,1
21:14:30.029,1.1879297494888306,0.46942386031150818,-9.8866415023803711,-0.11105381697416306,-0.073236934840679169,-0.022903185337781906,-0.037773910909891129,0.098366089165210724,0.0,0.56506043672561646,0.0034341730643063784,0.70607072114944458,0.44296538829803467,0.0,1.2412470579147339,0.0021670726127922535,0.032592613250017166,0.006933609489351511,1.2417634920325327e-08,0.033321965413465243,0.024941748380661009,0.039848464727401736,0.19937031745910644,0.30006647109985352,0.79831112921237946,1
21:14:30.090,1.1879297494888306,0.46942386031150818,-9.8866415023803711,-0.11105381697416306,-0.073236934840679169,-0.022903185337781906,-0.037773910909891129,0.098366089165210724,0.0,0.56506043672561646,0.0034341730643063784,0.70607072114944458,0.44296538829803467,0.0,1.2412470579147339,0.0021670726127922535,0.032592613250017166,0.006933609489351511,1.2417634920325327e-08,0.033321965413465243,0.024941748380661009,0.039848464727401736,0.19937031745910644,0.30006647109985352,0.79831112921237946,1
21:14:30.134,1.1879297494888306,0.46942386031150818,-9.8866415023803711,-0.63756078481674194,0.065513767302036285,-0.11904330551624298,-0.037773910909891129,0.090696640312671661,0.0,0.56506043672561646,0.0034341730643063784,0.0,0.28006955981254578,0.0,1.1578049659729004,0.0021670726127922535,0.032592613250017166,0.006933609489351511,1.2417634920325327e-08,0.033321965413465243,0.024941748380661009,0.039848464727401736,0.19937031745910644,0.30006647109985352,0.79831112921237946,1
21:14:30.182,2.653681755065918,0.4885840117931366,-8.8328323364257812,-0.63756078481674194,0.065513767302036285,-0.11904330551624298,-0.089737720787525177,0.090696640312671661,0.0,0.0,0.11940159648656845,0.0,0.28006955981254578,1.041413426399231,1.1578049659729004,0.0014138274127617478,0.032592613250017166,0.006933609489351511,1.2417634920325327e-08,0.033321965413465243,0.024941748380661009,0.039848464727401736,0.19937031745910644,0.30006647109985352,0.79831112921237946,1
21:14:30.231,2.653681755065918,0.4885840117931366,-8.8328323364257812,-0.63756078481674194,0.065513767302036285,-0.11904330551624298,-0.089737720787525177,0.090696640312671661,0.0,0.0,0.11940159648656845,0.0,0.28006955981254578,1.041413426399231,1.1578049659729004,0.0014138274127617478,0.032592613250017166,0.006933609489351511,1.2417634920325327e-08,0.033321965413465243,0.024941748380661009,0.039848464727401736,0.19937031745910644,0.30006647109985352,0.79831112921237946,1
21:14:30.283,2.653681755065918,0.4885840117931366,-8.8328323364257812,-0.63756078481674194,0.065513767302036285,-0.11904330551624298,-0.089737720787525177,0.090696640312671661,0.0,0.0,0.11940159648656845,0.0,0.28006955981254578,1.041413426399231,1.1578049659729004,0.0014138274127617478,0.032592613250017166,0.006933609489351511,1.2417634920325327e-08,0.033321965413465243,0.024941748380661009,0.039848464727401736,0.19937031745910644,0.30006647109985352,0.79831112921237946,1
21:14:30.336,2.653681755065918,0.4885840117931366,-8.8328323364257812,-0.63756078481674194,0.065513767302036285,-0.11904330551624298,-0.089737720787525177,0.090696640312671661,0.0,0.0,0.11940159648656845,0.0,0.28006955981254578,1.041413426399231,1.1578049659729004,0.0014138274127617478,0.074074126780033112,0.015756849199533463,1.4110949742018875e-08,0.07573146344103919,0.024941748380661009,0.039848464727401736,0.19937031745910644,0.30006647109985352,0.79831112921237946,1
21:14:30.381,2.653681755065918,0.4885840117931366,-8.8328323364257812,-0.63756078481674194,0.065513767302036285,-0.11904330551624298,-0.089737720787525177,0.090696640312671661,0.0,0.0,0.11940159648656845,0.0,0.28006955981254578,1.041413426399231,1.1578049659729004,0.0014138274127617478,0.074074126780033112,0.015756849199533463,1.4110949742018875e-08,0.07573146344103919,0.024941748380661009,0.039848464727401736,0.19937031745910644,0.30006647109985352,0.79831112921237946,1
21:14:30.471,2.653681755065918,0.4885840117931366,-8.8328323364257812,-0.63756078481674194,-0.42717105150222778,-0.11904330551624298,-0.089737720787525177,0.05599004402756691,0.0,0.0,0.11940159648656845,0.33253103494644165,0.17151984572410583,1.041413426399231,0.0,0.0014138274127617478,0.074074126780033112,0.015756849199533463,1.4110949742018875e-08,0.07573146344103919,0.024941748380661009,0.039848464727401736,0.19937031745910644,0.30006647109985352,0.79831112921237946,1
21:14:30.493,-0.76640629768371582,0.22034180164337158,-9.5034379959106445,0.034354779869318008,-0.42717105150222778,-0.0077231675386428833,0.015723403543233871,0.05599004402756691,0.0,0.0,0.002137849573045969,0.33253103494644165,0.17151984572410583,1.2333548069000244,0.0,0.86983424425125122,0.074074126780033112,0.015756849199533463,1.4110949742018875e-08,0.07573146344103919,0.024941748380661009,0.039848464727401736,0.19937031745910644,0.30006647109985352,0.79831112921237946,1
21:14:30.547,-0.76640629768371582,0.22034180164337158,-9.5034379959106445,0.034354779869318008,-0.42717105150222778,-0.0077231675386428833,0.015723403543233871,0.05599004402756691,0.0,0.0,0.002137849573045969,0.33253103494644165,0.17151984572410583,1.2333548069000244,0.0,0.86983424425125122,0.074074126780033112,0.015756849199533463,1.4110949742018875e-08,0.07573146344103919,0.024941748380661009,0.039848464727401736,0.19937031745910644,0.30006647109985352,0.79831112921237946,1
21:14:30.596,-0.76640629768371582,0.22034180164337158,-9.5034379959106445,0.034354779869318008,-0.42717105150222778,-0.0077231675386428833,0.015723403543233871,0.05599004402756691,0.0,0.0,0.002137849573045969,0.33253103494644165,0.17151984572410583,1.2333548069000244,0.0,0.86983424425125122,0.074074126780033112,0.015756849199533463,1.4110949742018875e-08,0.07573146344103919,0.024941748380661009,0.039848464727401736,0.19937031745910644,0.30006647109985352,0.79831112921237946,1
21:14:30.646,-0.76640629768371582,0.22034180164337158,-9.5034379959106445,0.034354779869318008,-0.42717105150222778,-0.0077231675386428833,0.015723403543233871,0.05599004402756691,0.0,0.0,0.002137849573045969,0.33253103494644165,0.17151984572410583,1.2333548069000244,0.0,0.86983424425125122,0.074074126780033112,0.015756849199533463,1.4110949742018875e-08,0.07573146344103919,0.024941748380661009,0.039848464727401736,0.19937031745910644,0.30006647109985352,0.79831112921237946,1
21:14:30.697,-0.76640629768371582,0.22034180164337158,-9.5034379959106445,0.034354779869318008,-0.42717105150222778,-0.0077231675386428833,0.015723403543233871,0.05599004402756691,0.0,0.0,0.002137849573045969,0.33253103494644165,0.17151984572410583,1.2333548069000244,0.0,0.86983424425125122,0.074074126780033112,0.015756849199533463,1.4110949742018875e-08,0.07573146344103919,0.024941748380661009,0.039848464727401736,0.19937031745910644,0.30006647109985352,0.79831112921237946,1
21:14:30.788,-0.76640629768371582,0.22034180164337158,-9.5034379959106445,0.034354779869318008,-0.42717105150222778,-0.0077231675386428833,0.015723403543233871,0.05599004402756691,0.0,0.0,0.002137849573045969,0.33253103494644165,0.17151984572410583,1.2333548069000244,0.0,0.86983424425125122,0.074074126780033112,0.015756849199533463,1.4110949742018875e-08,0.07573146344103919,0.024941748380661009,0.039848464727401736,0.19937031745910644,0.30006647109985352,0.79831112921237946,1
21:14:30.815,2.404599666595459,0.92926764488220215,-8.363408088684082,-0.25060346722602844,0.25806030631065369,0.070840083062648773,0.015723403543233871,0.07248050719499588,0.57275611162185669,0.32344943284988403,1.5991820096969604,0.0,0.0,0.0,0.017314573749899864,0.0023645588662475348,0.074074126780033112,0.015756849199533463,1.4110949742018875e-08,0.07573146344103919,0.024941748380661009,0.039848464727401736,0.19937031745910644,0.30006647109985352,0.79831112921237946,1
21:14:30.863,2.404599666595459,0.92926764488220215,-8.363408088684082,-0.25060346722602844,0.25806030631065369,0.070840083062648773,-0.072863884270191193,0.07248050719499588,0.57275611162185669,0.32344943284988403,1.5991820096969604,0.0,0.0,0.0,0.017314573749899864,0.0023645588662475348,0.074073217809200287,0.015756398439407349,1.4110949742018875e-08,0.075730480576784831,0.024941748380661009,0.039848464727401736,0.19937031745910644,0.30006647109985352,0.79831112921237946,1
21:14:30.910,2.404599666595459,0.92926764488220215,-8.363408088684082,-0.25060346722602844,0.25806030631065369,0.070840083062648773,-0.072863884270191193,0.07248050719499588,0.57275611162185669,0.32344943284988403,1.5991820096969604,0.0,0.0,0.0,0.017314573749899864,0.0023645588662475348,0.074073217809200287,0.015756398439407349,1.4110949742018875e-08,0.075730480576784831,0.024941748380661009,0.039848464727401736,0.19937031745910644,0.30006647109985352,0.79831112921237946,1
21:14:30.961,2.404599666595459,0.92926764488220215,-8.363408088684082,-0.25060346722602844,0.25806030631065369,0.070840083062648773,-0.072863884270191193,0.07248050719499588,0.57275611162185669,0.32344943284988403,1.5991820096969604,0.0,0.0,0.0,0.017314573749899864,0.0023645588662475348,0.074073217809200287,0.015756398439407349,1.4110949742018875e-08,0.075730480576784831,0.024941748380661009,0.039848464727401736,0.19937031745910644,0.30006647109985352,0.79831112921237946,1
21:14:31.013,2.404599666595459,0.92926764488220215,-8.363408088684082,-0.25060346722602844,0.25806030631065369,0.070840083062648773,-0.072863884270191193,0.07248050719499588,0.57275611162185669,0.32344943284988403,1.5991820096969604,0.0,0.0,0.0,0.017314573749899864,0.0023645588662475348,0.074073217809200287,0.015756398439407349,1.4110949742018875e-08,0.075730480576784831,0.024941748380661009,0.039848464727401736,0.19937031745910644,0.30006647109985352,0.79831112921237946,1
21:14:31.063,2.404599666595459,0.92926764488220215,-8.363408088684082,-0.25060346722602844,0.25806030631065369,0.070840083062648773,-0.072863884270191193,0.07248050719499588,0.57275611162185669,0.32344943284988403,1.5991820096969604,0.0,0.0,0.0,0.017314573749899864,0.0023645588662475348,0.074073217809200287,0.015756398439407349,1.4110949742018875e-08,0.075730480576784831,0.024941748380661009,0.039848464727401736,0.19937031745910644,0.30006647109985352,0.79831112921237946,1
21:14:31.145,2.404599666595459,0.92926764488220215,-8.363408088684082,0.15313176810741425,-0.015446335077285767,0.2178465873003006,-0.072863884270191193,0.095106430351734161,0.57275611162185669,0.0,1.5991820096969604,0.0,0.1551823616027832,0.0,0.0,0.0023645588662475348,0.074073217809200287,0.015756398439407349,1.4110949742018875e-08,0.075730480576784831,0.024941748380661009,0.039848464727401736,0.19937031745910644,0.30006647109985352,0.79831112921237946,1
21:14:31.165,0.69934570789337158,1.2549903392791748,-8.1909675598144531,0.15313176810741425,-0.015446335077285767,0.2178465873003006,-0.10680324584245682,0.095106430351734161,0.08021894097328186,0.0,0.32516801357269287,0.0,0.1551823616027832,0.065204821527004242,0.0,0.0015245808754116297,0.074073217809200287,0.015756398439407349,1.4110949742018875e-08,0.075730480576784831,0.024941748380661009,0.039848464727401736,0.19937031745910644,0.30006647109985352,0.79831112921237946,1
21:14:31.218,0.69934570789337158,1.2549903392791748,-8.1909675598144531,0.15313176810741425,-0.015446335077285767,0.2178465873003006,-0.10680324584245682,0.095106430351734161,0.08021894097328186,0.0,0.32516801357269287,0.0,0.1551823616027832,0.065204821527004242,0.0,0.0015245808754116297,0.074073217809200287,0.015756398439407349,1.4110949742018875e-08,0.075730480576784831,0.024941748380661009,0.039848464727401736,0.19937031745910644,0.30006647109985352,0.79831112921237946,1
21:14:31.268,0.69934570789337158,1.2549903392791748,-8.1909675598144531,0.15313176810741425,-0.015446335077285767,0.2178465873003006,-0.10680324584245682,0.095106430351734161,0.08021894097328186,0.0,0.32516801357269287,0.0,0.1551823616027832,0.065204821527004242,0.0,0.0015245808754116297,0.074073217809200287,0.015756398439407349,1.4110949742018875e-08,0.075730480576784831,0.024941748380661009,0.039848464727401736,0.19937031745910644,0.30006647109985352,0.79831112921237946,1
21:14:31.313,0.69934570789337158,1.2549903392791748,-8.1909675598144531,0.15313176810741425,-0.015446335077285767,0.2178465873003006,-0.10680324584245682,0.095106430351734161,0.08021894097328186,0.0,0.32516801357269287,0.0,0.1551823616027832,0.065204821527004242,0.0,0.0015245808754116297,0.074073217809200287,0.015756398439407349,1.4110949742018875e-08,0.075730480576784831,0.024941748380661009,0.039848464727401736,0.19937031745910644,0.30006647109985352,0.79831112921237946,1
21:14:31.374,0.69934570789337158,1.2549903392791748,-8.1909675598144531,0.15313176810741425,-0.015446335077285767,0.2178465873003006,-0.10680324584245682,0.095106430351734161,0.08021894097328186,0.0,0.32516801357269287,0.0,0.1551823616027832,0.065204821527004242,0.0,0.0015245808754116297,0.074073217809200287,0.015756398439407349,1.4110949742018875e-08,0.075730480576784831,0.024941748380661009,0.039848464727401736,0.19937031745910644,0.30006647109985352,0.79831112921237946,1
21:14:31.435,0.69934570789337158,1.2549903392791748,-8.1909675598144531,0.15313176810741425,-0.015446335077285767,0.2178465873003006,-0.10680324584245682,0.095106430351734161,0.08021894097328186,0.0,0.32516801357269287,0.0,0.1551823616027832,0.065204821527004242,0.0,0.0015245808754116297,0.074073217809200287,0.015755945816636086,1.4110949742018875e-08,0.075730386405895217,0.024941748380661009,0.039848464727401736,0.19937031745910644,0.30006647109985352,0.79831112921237946,1
21:14:31.487,0.77598637342453003,-2.0405566692352295,-8.1909675598144531,-0.24234765768051147,-0.22317290306091309,-0.27590349316596985,-0.10680324584245682,0.078232593834400177,0.0,0.0,0.017370561137795448,0.37241601943969727,0.13032463192939758,0.065204821527004242,0.0,0.0015245808754116297,0.074073217809200287,0.015755945816636086,1.4110949742018875e-08,0.075730386405895217,0.024941748380661009,0.039848464727401736,0.19937031745910644,0.30006647109985352,0.79831112921237946,1
21:14:31.516,0.77598637342453003,-2.0405566692352295,-10.001602172851562,-0.24234765768051147,-0.22317290306091309,-0.27590349316596985,0.02492731437087059,0.078232593834400177,0.0,0.0,0.017370561137795448,0.37241601943969727,0.13032463192939758,0.45048636198043823,0.0,0.0048077707178890705,0.074073217809200287,0.015755945816636086,1.4110949742018875e-08,0.075730386405895217,0.024941748380661009,0.039848464727401736,0.19937031745910644,0.30006647109985352,0.79831112921237946,1
21:14:31.573,0.77598637342453003,-2.0405566692352295,-10.001602172851562,-0.24234765768051147,-0.22317290306091309,-0.27590349316596985,0.02492731437087059,0.078232593834400177,0.0,0.0,0.017370561137795448,0.37241601943969727,0.13032463192939758,0.45048636198043823,0.0,0.0048077707178890705,0.074073217809200287,0.015755945816636086,1.4110949742018875e-08,0.075730386405895217,0.024941748380661009,0.039848464727401736,0.19937031745910644,0.30006647109985352,0.79831112921237946,1
21:14:31.620,0.77598637342453003,-2.0405566692352295,-10.001602172851562,-0.24234765768051147,-0.22317290306091309,-0.27590349316596985,0.02492731437087059,0.078232593834400177,0.0,0.0,0.017370561137795448,0.37241601943969727,0.13032463192939758,0.45048636198043823,0.0,0.0048077707178890705,0.074073217809200287,0.015755945816636086,1.4110949742018875e-08,0.075730386405895217,0.024941748380661009,0.039848464727401736,0.19937031745910644,0.30006647109985352,0.79831112921237946,1
21:14:31.673,0.77598637342453003,-2.0405566692352295,-10.001602172851562,-0.24234765768051147,-0.22317290306091309,-0.27590349316596985,0.02492731437087059,0.078232593834400177,0.0,0.0,0.017370561137795448,0.37241601943969727,0.13032463192939758,0.45048636198043823,0.0,0.0048077707178890705,0.074073217809200287,0.015755945816636086,1.4110949742018875e-08,0.075730386405895217,0.024941748380661009,0.039848464727401736,0.19937031745910644,0.30006647109985352,0.79831112921237946,1
21:14:31.716,0.77598637342453003,-2.0405566692352295,-10.001602172851562,-0.24234765768051147,-0.22317290306091309,-0.27590349316596985,0.02492731437087059,0.078232593834400177,0.0,0.0,0.017370561137795448,0.37241601943969727,0.13032463192939758,0.45048636198043823,0.0,0.0048077707178890705,0.074073217809200287,0.015755945816636086,1.4110949742018875e-08,0.075730386405895217,0.024941748380661009,0.039848464727401736,0.19937031745910644,0.30006647109985352,0.79831112921237946,1
21:14:31.810,0.77598637342453003,-2.0405566692352295,-10.001602172851562,-0.24234765768051147,0.23089607059955597,-0.27590349316596985,0.02492731437087059,0.070370979607105255,0.0,0.0,0.017370561137795448,0.0,0.0,0.45048636198043823,0.00055527436779811978,0.0048077707178890705,0.074073217809200287,0.015755945816636086,1.4110949742018875e-08,0.075730386405895217,0.024941748380661009,0.039848464727401736,0.19937031745910644,0.30006647109985352,0.79831112921237946,1
21:14:31.832,2.0309765338897705,2.8452832698822021,-11.237432479858398,-0.15419703722000122,0.23089607059955597,0.078563250601291656,-0.057332340627908707,0.070370979607105255,0.33703157305717468,0.15845993161201477,1.6817629337310791,0.0,0.0,0.0,0.00055527436779811978,0.0018865362508222461,0.074073217809200287,0.015755945816636086,1.4110949742018875e-08,0.075730386405895217,0.024941748380661009,0.039848464727401736,0.19937031745910644,0.30006647109985352,0.79831112921237946,1
21:14:31.894,2.0309765338897705,2.8452832698822021,-11.237432479858398,-0.15419703722000122,0.23089607059955597,0.078563250601291656,-0.057332340627908707,0.070370979607105255,0.33703157305717468,0.15845993161201477,1.6817629337310791,0.0,0.0,0.0,0.00055527436779811978,0.0018865362508222461,0.074073217809200287,0.015755945816636086,1.4110949742018875e-08,0.075730386405895217,0.024941748380661009,0.039848464727401736,0.19937031745910644,0.30006647109985352,0.79831112921237946,1
21:14:31.942,2.0309765338897705,2.8452832698822021,-11.237432479858398,-0.15419703722000122,0.23089607059955597,0.078563250601291656,-0.057332340627908707,0.070370979607105255,0.33703157305717468,0.15845993161201477,1.6817629337310791,0.0,0.0,0.0,0.00055527436779811978,0.0018865362508222461,0.074073217809200287,0.015756398439407349,1.4110949742018875e-08,0.075730480576784831,0.024941748380661009,0.039848464727401736,0.19937031745910644,0.30006647109985352,0.79831112921237946,1
21:14:31.982,2.0309765338897705,2.8452832698822021,-11.237432479858398,-0.15419703722000122,0.23089607059955597,0.078563250601291656,-0.057332340627908707,0.070370979607105255,0.33703157305717468,0.15845993161201477,1.6817629337310791,0.0,0.0,0.0,0.00055527436779811978,0.0018865362508222461,0.074073217809200287,0.015756398439407349,1.4110949742018875e-08,0.075730480576784831,0.024941748380661009,0.039848464727401736,0.19937031745910644,0.30006647109985352,0.79831112921237946,1
21:14:32.038,2.0309765338897705,2.8452832698822021,-11.237432479858398,-0.15419703722000122,0.23089607059955597,0.078563250601291656,-0.057332340627908707,0.070370979607105255,0.33703157305717468,0.15845993161201477,1.6817629337310791,0.0,0.0,0.0,0.00055527436779811978,0.0018865362508222461,0.074073217809200287,0.015756398439407349,1.4110949742018875e-08,0.075730480576784831,0.024941748380661009,0.039848464727401736,0.19937031745910644,0.30006647109985352,0.79831112921237946,1
21:14:32.085,2.0309765338897705,2.8452832698822021,-11.237432479858398,-0.15419703722000122,0.23089607059955597,0.078563250601291656,-0.057332340627908707,0.070370979607105255,0.33703157305717468,0.15845993161201477,1.6817629337310791,0.0,0.0,0.0,0.00055527436779811978,0.0018865362508222461,0.074073217809200287,0.015756398439407349,1.4110949742018875e-08,0.075730480576784831,0.024941748380661009,0.039848464727401736,0.19937031745910644,0.30006647109985352,0.79831112921237946,1
21:14:32.155,2.0309765338897705,2.6057813167572021,-11.237432479858398,-0.007190534844994545,-0.26871296763420105,0.29640984535217285,-0.057332340627908707,0.125019371509552,0.51583731174468994,0.15137191116809845,1.2481232881546021,0.0,0.077431291341781616,0.0,0.0375177301466465,0.0018865362508222461,0.074073217809200287,0.015756398439407349,1.4110949742018875e-08,0.075730480576784831,0.024941748380661009,0.039848464727401736,0.19937031745910644,0.30006647109985352,0.79831112921237946,1
21:14:32.192,1.5232324600219727,2.6057813167572021,-10.375225067138672,-0.007190534844994545,-0.26871296763420105,0.29640984535217285,-0.089737720787525177,0.125019371509552,0.51583731174468994,0.15137191116809845,1.2481232881546021,0.0,0.077431291341781616,0.0,0.0375177301466465,0.001802734681405127,0.074073217809200287,0.015756398439407349,1.4110949742018875e-08,0.075730480576784831,0.024941748380661009,0.039848464727401736,0.19937031745910644,0.30006647109985352,0.79831112921237946,1
21:14:32.239,1.5232324600219727,2.6057813167572021,-10.375225067138672,-0.007190534844994545,-0.26871296763420105,0.29640984535217285,-0.089737720787525177,0.125019371509552,0.51583731174468994,0.15137191116809845,1.2481232881546021,0.0,0.077431291341781616,0.0,0.0375177301466465,0.001802734681405127,0.074073217809200287,0.015756398439407349,1.4110949742018875e-08,0.075730480576784831,0.024941748380661009,0.039848464727401736,0.19937031745910644,0.30006647109985352,0.79831112921237946,1
21:14:32.289,1.5232324600219727,2.6057813167572021,-10.375225067138672,-0.007190534844994545,-0.26871296763420105,0.29640984535217285,-0.089737720787525177,0.125019371509552,0.51583731174468994,0.15137191116809845,1.2481232881546021,0.0,0.077431291341781616,0.0,0.0375177301466465,0.001802734681405127,0.074073217809200287,0.015756398439407349,1.4110949742018875e-08,0.075730480576784831,0.024941748380661009,0.039848464727401736,0.19937031745910644,0.30006647109985352,0.79831112921237946,1
21:14:32.347,1.5232324600219727,2.6057813167572021,-10.375225067138672,-0.007190534844994545,-0.26871296763420105,0.29640984535217285,-0.089737720787525177,0.125019371509552,0.51583731174468994,0.15137191116809845,1.2481232881546021,0.0,0.077431291341781616,0.0,0.0375177301466465,0.001802734681405127,0.074073217809200287,0.015756398439407349,1.4110949742018875e-08,0.075730480576784831,0.024941748380661009,0.039848464727401736,0.19937031745910644,0.30006647109985352,0.79831112921237946,1
21:14:32.382,1.5232324600219727,2.6057813167572021,-10.375225067138672,-0.007190534844994545,-0.26871296763420105,0.29640984535217285,-0.089737720787525177,0.125019371509552,0.51583731174468994,0.15137191116809845,1.2481232881546021,0.0,0.077431291341781616,0.0,0.0375177301466465,0.001802734681405127,0.074073217809200287,0.015756398439407349,1.4110949742018875e-08,0.075730480576784831,0.024941748380661009,0.039848464727401736,0.19937031745910644,0.30006647109985352,0.79831112921237946,1
21:14:32.465,1.5232324600219727,2.6057813167572021,-10.375225067138672,-0.007190534844994545,-0.26871296763420105,0.29640984535217285,-0.089737720787525177,0.125019371509552,0.51583731174468994,0.15137191116809845,1.2481232881546021,0.0,0.077431291341781616,0.0,0.0375177301466465,0.001802734681405127,0.074075028300285339,0.015756849199533463,1.4110949742018875e-08,0.075732345232305542,0.024941748380661009,0.039848464727401736,0.19937031745910644,0.30006647109985352,0.79831112921237946,1
21:14:32.497,0.77598637342453003,-1.2645703554153442,-8.5741701126098633,-0.12703278660774231,-0.26684874296188354,-0.28362667560577393,-0.089737720787525177,0.074397869408130646,0.0,0.0,0.0044349301606416702,0.0044733458198606968,0.29833084344863892,0.0,0.67629754543304443,0.031379561871290207,0.074075028300285339,0.015756849199533463,1.4110949742018875e-08,0.075732345232305542,0.024941748380661009,0.039848464727401736,0.19937031745910644,0.30006647109985352,0.79831112921237946,1
21:14:32.547,0.77598637342453003,-1.2645703554153442,-8.5741701126098633,-0.12703278660774231,-0.26684874296188354,-0.28362667560577393,0.040075477212667465,0.074397869408130646,0.0,0.0,0.0044349301606416702,0.0044733458198606968,0.29833084344863892,1.3550621271133423,0.67629754543304443,0.031379561871290207,0.074075028300285339,0.015756849199533463,1.4110949742018875e-08,0.075732345232305542,0.024941748380661009,0.039848464727401736,0.19937031745910644,0.30006647109985352,0.79831112921237946,1
21:14:32.590,0.77598637342453003,-1.2645703554153442,-8.5741701126098633,-0.12703278660774231,-0.26684874296188354,-0.28362667560577393,0.040075477212667465,0.074397869408130646,0.0,0.0,0.0044349301606416702,0.0044733458198606968,0.29833084344863892,1.3550621271133423,0.67629754543304443,0.031379561871290207,0.074075028300285339,0.015756849199533463,1.4110949742018875e-08,0.075732345232305542,0.024941748380661009,0.039848464727401736,0.19937031745910644,0.30006647109985352,0.79831112921237946,1
21:14:32.643,0.77598637342453003,-1.2645703554153442,-8.5741701126098633,-0.12703278660774231,-0.26684874296188354,-0.28362667560577393,0.040075477212667465,0.074397869408130646,0.0,0.0,0.0044349301606416702,0.0044733458198606968,0.29833084344863892,1.3550621271133423,0.67629754543304443,0.031379561871290207,0.074075028300285339,0.015756849199533463,1.4110949742018875e-08,0.075732345232305542,0.024941748380661009,0.039848464727401736,0.19937031745910644,0.30006647109985352,0.79831112921237946,1
21:14:32.694,0.77598637342453003,-1.2645703554153442,-8.5741701126098633,-0.12703278660774231,-0.26684874296188354,-0.28362667560577393,0.040075477212667465,0.074397869408130646,0.0,0.0,0.0044349301606416702,0.0044733458198606968,0.29833084344863892,1.3550621271133423,0.67629754543304443,0.031379561871290207,0.074075028300285339,0.015756849199533463,1.4110949742018875e-08,0.075732345232305542,0.024941748380661009,0.039848464727401736,0.19937031745910644,0.30006647109985352,0.79831112921237946,1
21:14:32.747,0.77598637342453003,-1.2645703554153442,-8.5741701126098633,-0.12703278660774231,-0.26684874296188354,-0.28362667560577393,0.040075477212667465,0.074397869408130646,0.0,0.0,0.0044349301606416702,0.0044733458198606968,0.29833084344863892,1.3550621271133423,0.67629754543304443,0.031379561871290207,0.074075028300285339,0.015756849199533463,1.4110949742018875e-08,0.075732345232305542,0.024941748380661009,0.039848464727401736,0.19937031745910644,0.30006647109985352,0.79831112921237946,1
21:14:32.822,0.77598637342453003,-1.2645703554153442,-8.5741701126098633,-0.33076462149620056,0.57790595293045044,-0.25459820032119751,0.040075477212667465,0.05599004402756691,0.0,0.0,0.0044349301606416702,0.0,0.0,1.3550621271133423,0.0026508013252168894,0.031379561871290207,0.074075028300285339,0.015756849199533463,1.4110949742018875e-08,0.075732345232305542,0.024941748380661009,0.039848464727401736,0.19937031745910644,0.30006647109985352,0.79831112921237946,1
21:14:32.845,0.46942386031150818,-0.16286133229732513,-8.6220703125,-0.33076462149620056,0.57790595293045044,-0.25459820032119751,-0.017448727041482925,0.05599004402756691,0.24715594947338104,0.19770956039428711,2.4818789958953857,0.0,0.0,0.0,0.0026508013252168894,0.0020265714265406132,0.074075028300285339,0.015756849199533463,1.4110949742018875e-08,0.075732345232305542,0.024941748380661009,0.039848464727401736,0.19937031745910644,0.30006647109985352,0.79831112921237946,1
21:14:32.900,0.46942386031150818,-0.16286133229732513,-8.6220703125,-0.33076462149620056,0.57790595293045044,-0.25459820032119751,-0.017448727041482925,0.05599004402756691,0.24715594947338104,0.19770956039428711,2.4818789958953857,0.0,0.0,0.0,0.0026508013252168894,0.0020265714265406132,0.074075028300285339,0.015756849199533463,1.4110949742018875e-08,0.075732345232305542,0.024941748380661009,0.039848464727401736,0.19937031745910644,0.30006647109985352,0.79831112921237946,1
21:14:32.948,0.46942386031150818,-0.16286133229732513,-8.6220703125,-0.33076462149620056,0.57790595293045044,-0.25459820032119751,-0.017448727041482925,0.05599004402756691,0.24715594947338104,0.19770956039428711,2.4818789958953857,0.0,0.0,0.0,0.0026508013252168894,0.0020265714265406132,0.074075028300285339,0.015756849199533463,1.4110949742018875e-08,0.075732345232305542,0.024941748380661009,0.039848464727401736,0.19937031745910644,0.30006647109985352,0.79831112921237946,1
21:14:32.996,0.46942386031150818,-0.16286133229732513,-8.6220703125,-0.33076462149620056,0.57790595293045044,-0.25459820032119751,-0.017448727041482925,0.05599004402756691,0.24715594947338104,0.19770956039428711,2.4818789958953857,0.0,0.0,0.0,0.0026508013252168894,0.0020265714265406132,0.074074126780033112,0.015755945816636086,1.4110949742018875e-08,0.075731275486428926,0.024941748380661009,0.039848464727401736,0.19937031745910644,0.30006647109985352,0.79831112921237946,1
21:14:33.047,0.46942386031150818,-0.16286133229732513,-8.6220703125,-0.33076462149620056,0.57790595293045044,-0.25459820032119751,-0.017448727041482925,0.05599004402756691,0.24715594947338104,0.19770956039428711,2.4818789958953857,0.0,0.0,0.0,0.0026508013252168894,0.0020265714265406132,0.074074126780033112,0.015755945816636086,1.4110949742018875e-08,0.075731275486428926,0.024941748380661009,0.039848464727401736,0.19937031745910644,0.30006647109985352,0.79831112921237946,1
21:14:33.095,0.46942386031150818,-0.16286133229732513,-8.6220703125,-0.33076462149620056,0.57790595293045044,-0.25459820032119751,-0.017448727041482925,0.05599004402756691,0.24715594947338104,0.19770956039428711,2.4818789958953857,0.0,0.0,0.0,0.0026508013252168894,0.0020265714265406132,0.074074126780033112,0.015755945816636086,1.4110949742018875e-08,0.075731275486428926,0.024941748380661009,0.039848464727401736,0.19937031745910644,0.30006647109985352,0.79831112921237946,1
21:14:33.169,0.8526269793510437,1.2549903392791748,-8.8424129486083984,-0.40426784753799438,-0.33262881636619568,0.0058589545078575611,-0.017448727041482925,0.12022573500871658,0.49928370118141174,0.36881977319717407,1.3793189525604248,0.0,0.083143830299377441,0.0,0.16824539005756378,0.0016634284984320402,0.074074126780033112,0.015755945816636086,1.4110949742018875e-08,0.075731275486428926,0.024941748380661009,0.039848464727401736,0.19937031745910644,0.30006647109985352,0.79831112921237946,1
21:14:33.203,0.8526269793510437,1.2549903392791748,-8.8424129486083984,-0.40426784753799438,-0.33262881636619568,0.0058589545078575611,-0.082067795097827911,0.12022573500871658,0.49928370118141174,0.36881977319717407,1.3793189525604248,0.0,0.083143830299377441,0.0,0.16824539005756378,0.0016634284984320402,0.074074126780033112,0.015755945816636086,1.4110949742018875e-08,0.075731275486428926,0.024941748380661009,0.039848464727401736,0.19937031745910644,0.30006647109985352,0.79831112921237946,1
21:14:33.244,0.8526269793510437,1.2549903392791748,-8.8424129486083984,-0.40426784753799438,-0.33262881636619568,0.0058589545078575611,-0.082067795097827911,0.12022573500871658,0.49928370118141174,0.36881977319717407,1.3793189525604248,0.0,0.083143830299377441,0.0,0.16824539005756378,0.0016634284984320402,0.074074126780033112,0.015755945816636086,1.4110949742018875e-08,0.075731275486428926,0.024941748380661009,0.039848464727401736,0.19937031745910644,0.30006647109985352,0.79831112921237946,1
21:14:33.300,0.8526269793510437,1.2549903392791748,-8.8424129486083984,-0.40426784753799438,-0.33262881636619568,0.0058589545078575611,-0.082067795097827911,0.12022573500871658,0.49928370118141174,0.36881977319717407,1.3793189525604248,0.0,0.083143830299377441,0.0,0.16824539005756378,0.0016634284984320402,0.074074126780033112,0.015755945816636086,1.4110949742018875e-08,0.075731275486428926,0.024941748380661009,0.039848464727401736,0.19937031745910644,0.30006647109985352,0.79831112921237946,1
21:14:33.354,0.8526269793510437,1.2549903392791748,-8.8424129486083984,-0.40426784753799438,-0.33262881636619568,0.0058589545078575611,-0.082067795097827911,0.12022573500871658,0.49928370118141174,0.36881977319717407,1.3793189525604248,0.0,0.083143830299377441,0.0,0.16824539005756378,0.0016634284984320402,0.074074126780033112,0.015755945816636086,1.4110949742018875e-08,0.075731275486428926,0.024941748380661009,0.039848464727401736,0.19937031745910644,0.30006647109985352,0.79831112921237946,1
21:14:33.392,0.8526269793510437,1.2549903392791748,-8.8424129486083984,-0.40426784753799438,-0.33262881636619568,0.0058589545078575611,-0.082067795097827911,0.12022573500871658,0.49928370118141174,0.36881977319717407,1.3793189525604248,0.0,0.083143830299377441,0.0,0.16824539005756378,0.0016634284984320402,0.074074126780033112,0.015755945816636086,1.4110949742018875e-08,0.075731275486428926,0.024941748380661009,0.039848464727401736,0.19937031745910644,0.30006647109985352,0.79831112921237946,1
21:14:33.449,0.8526269793510437,1.2549903392791748,-8.8424129486083984,-0.40426784753799438,-0.33262881636619568,0.0058589545078575611,-0.082067795097827911,0.12022573500871658,0.49928370118141174,0.36881977319717407,1.3793189525604248,0.0,0.083143830299377441,0.0,0.16824539005756378,0.0016634284984320402,0.074074126780033112,0.015755945816636086,1.4110949742018875e-08,0.075731275486428926,0.024941748380661009,0.039848464727401736,0.19937031745910644,0.30006647109985352,0.79831112921237946,1
21:14:33.503,0.8526269793510437,1.2549903392791748,-8.8424129486083984,0.041545312851667404,-0.28122982382774353,-0.28975194692611694,-0.082067795097827911,0.092805691063404083,0.49928370118141174,0.0,1.3793189525604248,0.0,0.36117538809776306,0.0,0.76265823841094971,0.0016634284984320402,0.074074126780033112,0.015756398439407349,1.4110949742018875e-08,0.07573136965621298,0.024941748380661009,0.039848464727401736,0.19937031745910644,0.30006647109985352,0.79831112921237946,1
21:14:33.547,0.42152345180511475,-0.80472660064697266,-11.620635032653809,0.041545312851667404,-0.28122982382774353,-0.28975194692611694,0.024352248758077621,0.092805691063404083,0.0,0.0,0.0041530630551278591,0.0,0.36117538809776306,1.4301605224609375,0.76265823841094971,0.017628984525799751,0.074074126780033112,0.015756398439407349,1.4110949742018875e-08,0.07573136965621298,0.024941748380661009,0.039848464727401736,0.19937031745910644,0.30006647109985352,0.79831112921237946,1
21:14:33.598,0.42152345180511475,-0.80472660064697266,-11.620635032653809,0.041545312851667404,-0.28122982382774353,-0.28975194692611694,0.024352248758077621,0.092805691063404083,0.0,0.0,0.0041530630551278591,0.0,0.36117538809776306,1.4301605224609375,0.76265823841094971,0.017628984525799751,0.074074126780033112,0.015756398439407349,1.4110949742018875e-08,0.07573136965621298,0.024941748380661009,0.039848464727401736,0.19937031745910644,0.30006647109985352,0.79831112921237946,1
21:14:33.649,0.42152345180511475,-0.80472660064697266,-11.620635032653809,0.041545312851667404,-0.28122982382774353,-0.28975194692611694,0.024352248758077621,0.092805691063404083,0.0,0.0,0.0041530630551278591,0.0,0.36117538809776306,1.4301605224609375,0.76265823841094971,0.017628984525799751,0.074074126780033112,0.015756398439407349,1.4110949742018875e-08,0.07573136965621298,0.024941748380661009,0.039848464727401736,0.19937031745910644,0.30006647109985352,0.79831112921237946,1
21:14:33.697,0.42152345180511475,-0.80472660064697266,-11.620635032653809,0.041545312851667404,-0.28122982382774353,-0.28975194692611694,0.024352248758077621,0.092805691063404083,0.0,0.0,0.0041530630551278591,0.0,0.36117538809776306,1.4301605224609375,0.76265823841094971,0.017628984525799751,0.074074126780033112,0.015756398439407349,1.4110949742018875e-08,0.07573136965621298,0.024941748380661009,0.039848464727401736,0.19937031745910644,0.30006647109985352,0.79831112921237946,1
21:14:33.747,0.42152345180511475,-0.80472660064697266,-11.620635032653809,0.041545312851667404,-0.28122982382774353,-0.28975194692611694,0.024352248758077621,0.092805691063404083,0.0,0.0,0.0041530630551278591,0.0,0.36117538809776306,1.4301605224609375,0.76265823841094971,0.017628984525799751,0.074074126780033112,0.015756398439407349,1.4110949742018875e-08,0.07573136965621298,0.024941748380661009,0.039848464727401736,0.19937031745910644,0.30006647109985352,0.79831112921237946,1
21:14:33.822,0.42152345180511475,-0.80472660064697266,-11.620635032653809,0.041545312851667404,-0.28122982382774353,-0.28975194692611694,0.024352248758077621,0.092805691063404083,0.0,0.0,0.0041530630551278591,0.0,0.36117538809776306,1.4301605224609375,0.76265823841094971,0.017628984525799751,0.074074126780033112,0.015756398439407349,1.4110949742018875e-08,0.07573136965621298,0.024941748380661009,0.039848464727401736,0.19937031745910644,0.30006647109985352,0.79831112921237946,1
21:14:33.848,1.5328125953674316,2.5195605754852295,-14.197676658630371,-0.21092236042022705,0.37044572830200195,-0.49934270977973938,0.0074784117750823498,0.052922073751688004,0.064723387360572815,0.10650314390659332,2.09720778465271,0.24171769618988037,0.0,0.0,0.0,0.0048676421865820885,0.074074126780033112,0.015756398439407349,1.4110949742018875e-08,0.07573136965621298,0.024941748380661009,0.039848464727401736,0.19937031745910644,0.30006647109985352,0.79831112921237946,1
21:14:33.898,1.5328125953674316,2.5195605754852295,-14.197676658630371,-0.21092236042022705,0.37044572830200195,-0.49934270977973938,0.0074784117750823498,0.052922073751688004,0.064723387360572815,0.10650314390659332,2.09720778465271,0.24171769618988037,0.0,0.0,0.0,0.0048676421865820885,0.074074126780033112,0.015756398439407349,1.4110949742018875e-08,0.07573136965621298,0.024941748380661009,0.039848464727401736,0.19937031745910644,0.30006647109985352,0.79831112921237946,1
21:14:33.945,1.5328125953674316,2.5195605754852295,-14.197676658630371,-0.21092236042022705,0.37044572830200195,-0.49934270977973938,0.0074784117750823498,0.052922073751688004,0.064723387360572815,0.10650314390659332,2.09720778465271,0.24171769618988037,0.0,0.0,0.0,0.0048676421865820885,0.074074126780033112,0.015756398439407349,1.4110949742018875e-08,0.07573136965621298,0.024941748380661009,0.039848464727401736,0.19937031745910644,0.30006647109985352,0.79831112921237946,1
21:14:33.991,1.5328125953674316,2.5195605754852295,-14.197676658630371,-0.21092236042022705,0.37044572830200195,-0.49934270977973938,0.0074784117750823498,0.052922073751688004,0.064723387360572815,0.10650314390659332,2.09720778465271,0.24171769618988037,0.0,0.0,0.0,0.0048676421865820885,0.074074126780033112,0.015756398439407349,1.4110949742018875e-08,0.07573136965621298,0.024941748380661009,0.039848464727401736,0.19937031745910644,0.30006647109985352,0.79831112921237946,1
21:14:34.051,1.5328125953674316,2.5195605754852295,-14.197676658630371,-0.21092236042022705,0.37044572830200195,-0.49934270977973938,0.0074784117750823498,0.052922073751688004,0.064723387360572815,0.10650314390659332,2.09720778465271,0.24171769618988037,0.0,0.0,0.0,0.0048676421865820885,0.074073217809200287,0.015756398439407349,1.4110949742018875e-08,0.075730480576784831,0.024941748380661009,0.039848464727401736,0.19937031745910644,0.30006647109985352,0.79831112921237946,1
21:14:34.093,1.5328125953674316,2.5195605754852295,-14.197676658630371,-0.21092236042022705,0.37044572830200195,-0.49934270977973938,0.0074784117750823498,0.052922073751688004,0.064723387360572815,0.10650314390659332,2.09720778465271,0.24171769618988037,0.0,0.0,0.0,0.0048676421865820885,0.074073217809200287,0.015756398439407349,1.4110949742018875e-08,0.075730480576784831,0.024941748380661009,0.039848464727401736,0.19937031745910644,0.30006647109985352,0.79831112921237946,1
21:14:34.163,1.5328125953674316,2.5195605754852295,-14.197676658630371,0.11398329585790634,-0.44927528500556946,-0.20106866955757141,0.0074784117750823498,0.11332256346940994,0.064723387360572815,0.10650314390659332,2.09720778465271,0.0,0.16161102056503296,0.0,0.32458126544952393,0.0048676421865820885,0.074073217809200287,0.015756398439407349,1.4110949742018875e-08,0.075730480576784831,0.024941748380661009,0.039848464727401736,0.19937031745910644,0.30006647109985352,0.79831112921237946,1
21:14:34.198,1.5711328983306885,1.5232324600219727,-13.37378978729248,0.11398329585790634,-0.44927528500556946,-0.20106866955757141,-0.055414978414773941,0.11332256346940994,0.38059195876121521,0.33871924877166748,0.87474924325942993,0.0,0.16161102056503296,0.0,0.32458126544952393,0.0015800627879798412,0.074073217809200287,0.015756398439407349,1.4110949742018875e-08,0.075730480576784831,0.024941748380661009,0.039848464727401736,0.19937031745910644,0.30006647109985352,0.79831112921237946,1
21:14:34.249,1.5711328983306885,1.5232324600219727,-13.37378978729248,0.11398329585790634,-0.44927528500556946,-0.20106866955757141,-0.055414978414773941,0.11332256346940994,0.38059195876121521,0.33871924877166748,0.87474924325942993,0.0,0.16161102056503296,0.0,0.32458126544952393,0.0015800627879798412,0.074073217809200287,0.015756398439407349,1.4110949742018875e-08,0.075730480576784831,0.024941748380661009,0.039848464727401736,0.19937031745910644,0.30006647109985352,0.79831112921237946,1
21:14:34.296,1.5711328983306885,1.5232324600219727,-13.37378978729248,0.11398329585790634,-0.44927528500556946,-0.20106866955757141,-0.055414978414773941,0.11332256346940994,0.38059195876121521,0.33871924877166748,0.87474924325942993,0.0,0.16161102056503296,0.0,0.32458126544952393,0.0015800627879798412,0.074073217809200287,0.015756398439407349,1.4110949742018875e-08,0.075730480576784831,0.024941748380661009,0.039848464727401736,0.19937031745910644,0.30006647109985352,0.79831112921237946,1
21:14:34.348,1.5711328983306885,1.5232324600219727,-13.37378978729248,0.11398329585790634,-0.44927528500556946,-0.20106866955757141,-0.055414978414773941,0.11332256346940994,0.38059195876121521,0.33871924877166748,0.87474924325942993,0.0,0.16161102056503296,0.0,0.32458126544952393,0.0015800627879798412,0.074073217809200287,0.015756398439407349,1.4110949742018875e-08,0.075730480576784831,0.024941748380661009,0.039848464727401736,0.19937031745910644,0.30006647109985352,0.79831112921237946,1
21:14:34.394,1.5711328983306885,1.5232324600219727,-13.37378978729248,0.11398329585790634,-0.44927528500556946,-0.20106866955757141,-0.055414978414773941,0.11332256346940994,0.38059195876121521,0.33871924877166748,0.87474924325942993,0.0,0.16161102056503296,0.0,0.32458126544952393,0.0015800627879798412,0.074073217809200287,0.015756398439407349,1.4110949742018875e-08,0.075730480576784831,0.024941748380661009,0.039848464727401736,0.19937031745910644,0.30006647109985352,0.79831112921237946,1
21:14:34.456,1.5711328983306885,1.5232324600219727,-13.37378978729248,0.11398329585790634,-0.44927528500556946,-0.20106866955757141,-0.055414978414773941,0.11332256346940994,0.38059195876121521,0.33871924877166748,0.87474924325942993,0.0,0.16161102056503296,0.0,0.32458126544952393,0.0015800627879798412,0.074073217809200287,0.015756398439407349,1.4110949742018875e-08,0.075730480576784831,0.024941748380661009,0.039848464727401736,0.19937031745910644,0.30006647109985352,0.79831112921237946,1
21:14:34.506,1.5711328983306885,1.5232324600219727,-13.37378978729248,0.28628981113433838,-0.40613207221031189,-0.15819177031517029,-0.055414978414773941,0.084752388298511505,0.38059195876121521,0.33871924877166748,0.87474924325942993,0.0,0.3695949912071228,0.0,0.38810169696807861,0.0015800627879798412,0.074073217809200287,0.015756398439407349,1.4110949742018875e-08,0.075730480576784831,0.024941748380661009,0.039848464727401736,0.19937031745910644,0.30006647109985352,0.79831112921237946,1
21:14:34.548,0.31614258885383606,-1.6094532012939453,-9.6567192077636719,0.28628981113433838,-0.40613207221031189,-0.15819177031517029,0.01361435279250145,0.084752388298511505,0.0,0.0,0.0083494680002331734,0.0,0.3695949912071228,1.1263011693954468,0.38810169696807861,0.004420554731041193,0.074073217809200287,0.015756398439407349,1.4110949742018875e-08,0.075730480576784831,0.024941748380661009,0.039848464727401736,0.19937031745910644,0.30006647109985352,0.79831112921237946,1
21:14:34.598,0.31614258885383606,-1.6094532012939453,-9.6567192077636719,0.28628981113433838,-0.40613207221031189,-0.15819177031517029,0.01361435279250145,0.084752388298511505,0.0,0.0,0.0083494680002331734,0.0,0.3695949912071228,1.1263011693954468,0.38810169696807861,0.004420554731041193,0.074074126780033112,0.015755945816636086,1.4110949742018875e-08,0.075731275486428926,0.024941748380661009,0.039848464727401736,0.19937031745910644,0.30006647109985352,0.79831112921237946,1
21:14:34.651,0.31614258885383606,-1.6094532012939453,-9.6567192077636719,0.28628981113433838,-0.40613207221031189,-0.15819177031517029,0.01361435279250145,0.084752388298511505,0.0,0.0,0.0083494680002331734,0.0,0.3695949912071228,1.1263011693954468,0.38810169696807861,0.004420554731041193,0.074074126780033112,0.015755945816636086,1.4110949742018875e-08,0.075731275486428926,0.024941748380661009,0.039848464727401736,0.19937031745910644,0.30006647109985352,0.79831112921237946,1
21:14:34.697,0.31614258885383606,-1.6094532012939453,-9.6567192077636719,0.28628981113433838,-0.40613207221031189,-0.15819177031517029,0.01361435279250145,0.084752388298511505,0.0,0.0,0.0083494680002331734,0.0,0.3695949912071228,1.1263011693954468,0.38810169696807861,0.004420554731041193,0.074074126780033112,0.015755945816636086,1.4110949742018875e-08,0.075731275486428926,0.024941748380661009,0.039848464727401736,0.19937031745910644,0.30006647109985352,0.79831112921237946,1
21:14:34.747,0.31614258885383606,-1.6094532012939453,-9.6567192077636719,0.28628981113433838,-0.40613207221031189,-0.15819177031517029,0.01361435279250145,0.084752388298511505,0.0,0.0,0.0083494680002331734,0.0,0.3695949912071228,1.1263011693954468,0.38810169696807861,0.004420554731041193,0.074074126780033112,0.015755945816636086,1.4110949742018875e-08,0.075731275486428926,0.024941748380661009,0.039848464727401736,0.19937031745910644,0.30006647109985352,0.79831112921237946,1
21:14:34.799,0.31614258885383606,-1.6094532012939453,-9.6567192077636719,0.28628981113433838,-0.40613207221031189,-0.15819177031517029,0.01361435279250145,0.084752388298511505,0.0,0.0,0.0083494680002331734,0.0,0.3695949912071228,1.1263011693954468,0.38810169696807861,0.004420554731041193,0.074074126780033112,0.015755945816636086,1.4110949742018875e-08,0.075731275486428926,0.024941748380661009,0.039848464727401736,0.19937031745910644,0.30006647109985352,0.79831112921237946,1
21:14:34.849,0.8526269793510437,-0.8526269793510437,-9.8866415023803711,-0.071639031171798706,0.037017941474914551,-0.025300031527876854,0.04371851310133934,0.027227703481912613,0.051297031342983246,0.0,0.93333971500396729,0.6252593994140625,0.075070075690746307,0.0,0.068732813000679016,0.0035689498763531446,0.074074126780033112,0.015755945816636086,1.4110949742018875e-08,0.075731275486428926,0.024941748380661009,0.039848464727401736,0.19937031745910644,0.30006647109985352,0.79831112921237946,1
21:14:34.900,0.8526269793510437,-0.8526269793510437,-9.8866415023803711,-0.071639031171798706,0.037017941474914551,-0.025300031527876854,0.04371851310133934,0.027227703481912613,0.051297031342983246,0.0,0.93333971500396729,0.6252593994140625,0.075070075690746307,0.0,0.068732813000679016,0.0035689498763531446,0.074074126780033112,0.015755945816636086,1.4110949742018875e-08,0.075731275486428926,0.024941748380661009,0.039848464727401736,0.19937031745910644,0.30006647109985352,0.79831112921237946,1
21:14:34.946,0.8526269793510437,-0.8526269793510437,-9.8866415023803711,-0.071639031171798706,0.037017941474914551,-0.025300031527876854,0.04371851310133934,0.027227703481912613,0.051297031342983246,0.0,0.93333971500396729,0.6252593994140625,0.075070075690746307,0.0,0.068732813000679016,0.0035689498763531446,0.074074126780033112,0.015755945816636086,1.4110949742018875e-08,0.075731275486428926,0.024941748380661009,0.039848464727401736,0.19937031745910644,0.30006647109985352,0.79831112921237946,1
21:14:35.002,0.8526269793510437,-0.8526269793510437,-9.8866415023803711,-0.071639031171798706,0.037017941474914551,-0.025300031527876854,0.04371851310133934,0.027227703481912613,0.051297031342983246,0.0,0.93333971500396729,0.6252593994140625,0.075070075690746307,0.0,0.068732813000679016,0.0035689498763531446,0.074074126780033112,0.015755945816636086,1.4110949742018875e-08,0.075731275486428926,0.024941748380661009,0.039848464727401736,0.19937031745910644,0.30006647109985352,0.79831112921237946,1
21:14:35.048,0.8526269793510437,-0.8526269793510437,-9.8866415023803711,-0.071639031171798706,0.037017941474914551,-0.025300031527876854,0.04371851310133934,0.027227703481912613,0.051297031342983246,0.0,0.93333971500396729,0.6252593994140625,0.075070075690746307,0.0,0.068732813000679016,0.0035689498763531446,0.074074126780033112,0.015755945816636086,1.4110949742018875e-08,0.075731275486428926,0.024941748380661009,0.039848464727401736,0.19937031745910644,0.30006647109985352,0.79831112921237946,1
21:14:35.104,0.8526269793510437,-0.8526269793510437,-9.8866415023803711,-0.071639031171798706,0.037017941474914551,-0.025300031527876854,0.04371851310133934,0.027227703481912613,0.051297031342983246,0.0,0.93333971500396729,0.6252593994140625,0.075070075690746307,0.0,0.068732813000679016,0.0035689498763531446,0.074072316288948059,0.015756849199533463,1.4110949742018875e-08,0.075729692572378757,0.024941748380661009,0.039848464727401736,0.19937031745910644,0.30006647109985352,0.79831112921237946,1
21:14:35.176,0.8526269793510437,-0.8526269793510437,-9.8866415023803711,-0.071639031171798706,0.037017941474914551,-0.025300031527876854,0.04371851310133934,0.027227703481912613,0.051297031342983246,0.0,0.93333971500396729,0.6252593994140625,0.075070075690746307,0.0,0.068732813000679016,0.0035689498763531446,0.074072316288948059,0.015756849199533463,1.4110949742018875e-08,0.075729692572378757,0.024941748380661009,0.039848464727401736,0.19937031745910644,0.30006647109985352,0.79831112921237946,1
21:14:35.202,1.8202148675918579,0.65144532918930054,-12.387041091918945,0.058589544147253036,0.24128240346908569,-0.5073322057723999,-0.068645305931568146,0.11754114180803299,0.050992075353860855,0.27233430743217468,0.32516801357269287,0.0,0.018617160618305206,0.0,0.017173388972878456,0.0019145027035847306,0.074072316288948059,0.015756849199533463,1.4110949742018875e-08,0.075729692572378757,0.024941748380661009,0.039848464727401736,0.19937031745910644,0.30006647109985352,0.79831112921237946,1
21:14:35.252,1.8202148675918579,0.65144532918930054,-12.387041091918945,0.058589544147253036,0.24128240346908569,-0.5073322057723999,-0.068645305931568146,0.11754114180803299,0.050992075353860855,0.27233430743217468,0.32516801357269287,0.0,0.018617160618305206,0.0,0.017173388972878456,0.0019145027035847306,0.074072316288948059,0.015756849199533463,1.4110949742018875e-08,0.075729692572378757,0.024941748380661009,0.039848464727401736,0.19937031745910644,0.30006647109985352,0.79831112921237946,1
21:14:35.304,1.8202148675918579,0.65144532918930054,-12.387041091918945,0.058589544147253036,0.24128240346908569,-0.5073322057723999,-0.068645305931568146,0.11754114180803299,0.050992075353860855,0.27233430743217468,0.32516801357269287,0.0,0.018617160618305206,0.0,0.017173388972878456,0.0019145027035847306,0.074072316288948059,0.015756849199533463,1.4110949742018875e-08,0.075729692572378757,0.024941748380661009,0.039848464727401736,0.19937031745910644,0.30006647109985352,0.79831112921237946,1
21:14:35.354,1.8202148675918579,0.65144532918930054,-12.387041091918945,0.058589544147253036,0.24128240346908569,-0.5073322057723999,-0.068645305931568146,0.11754114180803299,0.050992075353860855,0.27233430743217468,0.32516801357269287,0.0,0.018617160618305206,0.0,0.017173388972878456,0.0019145027035847306,0.074072316288948059,0.015756849199533463,1.4110949742018875e-08,0.075729692572378757,0.024941748380661009,0.039848464727401736,0.19937031745910644,0.30006647109985352,0.79831112921237946,1
21:14:35.401,1.8202148675918579,0.65144532918930054,-12.387041091918945,0.058589544147253036,0.24128240346908569,-0.5073322057723999,-0.068645305931568146,0.11754114180803299,0.050992075353860855,0.27233430743217468,0.32516801357269287,0.0,0.018617160618305206,0.0,0.017173388972878456,0.0019145027035847306,0.074072316288948059,0.015756849199533463,1.4110949742018875e-08,0.075729692572378757,0.024941748380661009,0.039848464727401736,0.19937031745910644,0.30006647109985352,0.79831112921237946,1
21:14:35.452,1.8202148675918579,0.65144532918930054,-12.387041091918945,0.058589544147253036,0.24128240346908569,-0.5073322057723999,-0.068645305931568146,0.11754114180803299,0.050992075353860855,0.27233430743217468,0.32516801357269287,0.0,0.018617160618305206,0.0,0.017173388972878456,0.0019145027035847306,0.074072316288948059,0.015756849199533463,1.4110949742018875e-08,0.075729692572378757,0.024941748380661009,0.039848464727401736,0.19937031745910644,0.30006647109985352,0.79831112921237946,1
21:14:35.521,2.5483009815216064,-0.36404299736022949,-8.8232526779174805,0.16937704384326935,-0.29534456133842468,0.18082864582538605,-0.068645305931568146,0.10833723098039627,0.0,0.0,0.0069051161408424377,0.0,0.31823566555976868,0.0,0.14588004350662231,0.0019145027035847306,0.074072316288948059,0.015756849199533463,1.4110949742018875e-08,0.075729692572378757,0.024941748380661009,0.039848464727401736,0.19937031745910644,0.30006647109985352,0.79831112921237946,1
21:14:35.550,2.5483009815216064,-0.36404299736022949,-8.8232526779174805,0.16937704384326935,-0.29534456133842468,0.18082864582538605,-0.018791023641824722,0.10833723098039627,0.0,0.0,0.0069051161408424377,0.0,0.31823566555976868,1.8010686635971069,0.14588004350662231,0.54523730278015137,0.074072316288948059,0.015756849199533463,1.4110949742018875e-08,0.075729692572378757,0.024941748380661009,0.039848464727401736,0.19937031745910644,0.30006647109985352,0.79831112921237946,1
21:14:35.608,2.5483009815216064,-0.36404299736022949,-8.8232526779174805,0.16937704384326935,-0.29534456133842468,0.18082864582538605,-0.018791023641824722,0.10833723098039627,0.0,0.0,0.0069051161408424377,0.0,0.31823566555976868,1.8010686635971069,0.14588004350662231,0.54523730278015137,0.074072316288948059,0.015756849199533463,1.4110949742018875e-08,0.075729692572378757,0.024941748380661009,0.039848464727401736,0.19937031745910644,0.30006647109985352,0.79831112921237946,1
21:14:35.653,2.5483009815216064,-0.36404299736022949,-8.8232526779174805,0.16937704384326935,-0.29534456133842468,0.18082864582538605,-0.018791023641824722,0.10833723098039627,0.0,0.0,0.0069051161408424377,0.0,0.31823566555976868,1.8010686635971069,0.14588004350662231,0.54523730278015137,0.074073217809200287,0.015756398439407349,1.4110949742018875e-08,0.075730480576784831,0.024941748380661009,0.039848464727401736,0.19937031745910644,0.30006647109985352,0.79831112921237946,1
21:14:35.702,2.5483009815216064,-0.36404299736022949,-8.8232526779174805,0.16937704384326935,-0.29534456133842468,0.18082864582538605,-0.018791023641824722,0.10833723098039627,0.0,0.0,0.0069051161408424377,0.0,0.31823566555976868,1.8010686635971069,0.14588004350662231,0.54523730278015137,0.074073217809200287,0.015756398439407349,1.4110949742018875e-08,0.075730480576784831,0.024941748380661009,0.039848464727401736,0.19937031745910644,0.30006647109985352,0.79831112921237946,1
21:14:35.750,2.5483009815216064,-0.36404299736022949,-8.8232526779174805,0.16937704384326935,-0.29534456133842468,0.18082864582538605,-0.018791023641824722,0.10833723098039627,0.0,0.0,0.0069051161408424377,0.0,0.31823566555976868,1.8010686635971069,0.14588004350662231,0.54523730278015137,0.074073217809200287,0.015756398439407349,1.4110949742018875e-08,0.075730480576784831,0.024941748380661009,0.039848464727401736,0.19937031745910644,0.30006647109985352,0.79831112921237946,1
21:14:35.840,2.5483009815216064,-0.36404299736022949,-8.8232526779174805,0.16937704384326935,-0.29534456133842468,0.18082864582538605,-0.018791023641824722,0.10833723098039627,0.0,0.0,0.0069051161408424377,0.0,0.31823566555976868,1.8010686635971069,0.14588004350662231,0.54523730278015137,0.074073217809200287,0.015756398439407349,1.4110949742018875e-08,0.075730480576784831,0.024941748380661009,0.039848464727401736,0.19937031745910644,0.30006647109985352,0.79831112921237946,1
21:14:35.865,1.0538086891174316,-1.1591894626617432,-9.8100004196166992,0.026631612330675125,0.028229508548974991,0.13608753681182861,0.043335136026144028,0.022242370992898941,0.0,0.0,0.0041932552121579647,0.70855766534805298,0.1726003885269165,0.47904315590858459,0.47673884034156799,0.00072814221493899822,0.074073217809200287,0.015756398439407349,1.4110949742018875e-08,0.075730480576784831,0.024941748380661009,0.039848464727401736,0.19937031745910644,0.30006647109985352,0.79831112921237946,1
21:14:35.917,1.0538086891174316,-1.1591894626617432,-9.8100004196166992,0.026631612330675125,0.028229508548974991,0.13608753681182861,0.043335136026144028,0.022242370992898941,0.0,0.0,0.0041932552121579647,0.70855766534805298,0.1726003885269165,0.47904315590858459,0.47673884034156799,0.00072814221493899822,0.074073217809200287,0.015756398439407349,1.4110949742018875e-08,0.075730480576784831,0.024941748380661009,0.039848464727401736,0.19937031745910644,0.30006647109985352,0.79831112921237946,1
21:14:35.961,1.0538086891174316,-1.1591894626617432,-9.8100004196166992,0.026631612330675125,0.028229508548974991,0.13608753681182861,0.043335136026144028,0.022242370992898941,0.0,0.0,0.0041932552121579647,0.70855766534805298,0.1726003885269165,0.47904315590858459,0.47673884034156799,0.00072814221493899822,0.074073217809200287,0.015756398439407349,1.4110949742018875e-08,0.075730480576784831,0.024941748380661009,0.039848464727401736,0.19937031745910644,0.30006647109985352,0.79831112921237946,1
21:14:36.010,1.0538086891174316,-1.1591894626617432,-9.8100004196166992,0.026631612330675125,0.028229508548974991,0.13608753681182861,0.043335136026144028,0.022242370992898941,0.0,0.0,0.0041932552121579647,0.70855766534805298,0.1726003885269165,0.47904315590858459,0.47673884034156799,0.00072814221493899822,0.074073217809200287,0.015756398439407349,1.4110949742018875e-08,0.075730480576784831,0.024941748380661009,0.039848464727401736,0.19937031745910644,0.30006647109985352,0.79831112921237946,1
21:14:36.070,1.0538086891174316,-1.1591894626617432,-9.8100004196166992,0.026631612330675125,0.028229508548974991,0.13608753681182861,0.043335136026144028,0.022242370992898941,0.0,0.0,0.0041932552121579647,0.70855766534805298,0.1726003885269165,0.47904315590858459,0.47673884034156799,0.00072814221493899822,0.074073217809200287,0.015756398439407349,1.4110949742018875e-08,0.075730480576784831,0.024941748380661009,0.039848464727401736,0.19937031745910644,0.30006647109985352,0.79831112921237946,1
21:14:36.117,1.0538086891174316,-1.1591894626617432,-9.8100004196166992,0.026631612330675125,0.028229508548974991,0.13608753681182861,0.043335136026144028,0.022242370992898941,0.0,0.0,0.0041932552121579647,0.70855766534805298,0.1726003885269165,0.47904315590858459,0.47673884034156799,0.00072814221493899822,0.074073217809200287,0.015756398439407349,1.4110949742018875e-08,0.075730480576784831,0.024941748380661009,0.039848464727401736,0.19937031745910644,0.30006647109985352,0.79831112921237946,1
21:14:36.186,1.0538086891174316,0.9867480993270874,-9.8100004196166992,0.26684874296188354,0.28682246804237366,0.069774821400642395,0.043335136026144028,0.077849216759204865,0.40419989824295044,0.45312848687171936,0.2200680673122406,0.19666275382041931,0.10962814092636108,0.47904315590858459,0.0,0.00072814221493899822,0.073118641972541809,0.03262631967663765,1.4110949742018875e-08,0.080067549853552439,0.024941748380661009,0.039848464727401736,0.19937031745910644,0.30006647109985352,0.79831112921237946,1
21:14:36.215,2.2992188930511475,0.9867480993270874,-8.8232526779174805,0.26684874296188354,0.28682246804237366,0.069774821400642395,-0.073631115257740021,0.077849216759204865,0.40419989824295044,0.45312848687171936,0.2200680673122406,0.19666275382041931,0.10962814092636108,0.0,0.0,0.0020827222615480423,0.073118641972541809,0.03262631967663765,1.4110949742018875e-08,0.080067549853552439,0.024941748380661009,0.039848464727401736,0.19937031745910644,0.30006647109985352,0.79831112921237946,1
21:14:36.262,2.2992188930511475,0.9867480993270874,-8.8232526779174805,0.26684874296188354,0.28682246804237366,0.069774821400642395,-0.073631115257740021,0.077849216759204865,0.40419989824295044,0.45312848687171936,0.2200680673122406,0.19666275382041931,0.10962814092636108,0.0,0.0,0.0020827222615480423,0.073118641972541809,0.03262631967663765,1.4110949742018875e-08,0.080067549853552439,0.024941748380661009,0.039848464727401736,0.19937031745910644,0.30006647109985352,0.79831112921237946,1
21:14:36.317,2.2992188930511475,0.9867480993270874,-8.8232526779174805,0.26684874296188354,0.28682246804237366,0.069774821400642395,-0.073631115257740021,0.077849216759204865,0.40419989824295044,0.45312848687171936,0.2200680673122406,0.19666275382041931,0.10962814092636108,0.0,0.0,0.0020827222615480423,0.073118641972541809,0.03262631967663765,1.4110949742018875e-08,0.080067549853552439,0.024941748380661009,0.039848464727401736,0.19937031745910644,0.30006647109985352,0.79831112921237946,1
21:14:36.378,2.2992188930511475,0.9867480993270874,-8.8232526779174805,0.26684874296188354,0.28682246804237366,0.069774821400642395,-0.073631115257740021,0.077849216759204865,0.40419989824295044,0.45312848687171936,0.2200680673122406,0.19666275382041931,0.10962814092636108,0.0,0.0,0.0020827222615480423,0.073118641972541809,0.03262631967663765,1.4110949742018875e-08,0.080067549853552439,0.024941748380661009,0.039848464727401736,0.19937031745910644,0.30006647109985352,0.79831112921237946,1
21:14:36.412,2.2992188930511475,0.9867480993270874,-8.8232526779174805,0.26684874296188354,0.28682246804237366,0.069774821400642395,-0.073631115257740021,0.077849216759204865,0.40419989824295044,0.45312848687171936,0.2200680673122406,0.19666275382041931,0.10962814092636108,0.0,0.0,0.0020827222615480423,0.073118641972541809,0.03262631967663765,1.4110949742018875e-08,0.080067549853552439,0.024941748380661009,0.039848464727401736,0.19937031745910644,0.30006647109985352,0.79831112921237946,1
21:14:36.479,2.2992188930511475,0.9867480993270874,-8.8232526779174805,0.26684874296188354,0.28682246804237366,0.069774821400642395,-0.073631115257740021,0.077849216759204865,0.40419989824295044,0.45312848687171936,0.2200680673122406,0.19666275382041931,0.10962814092636108,0.0,0.0,0.0020827222615480423,0.073118641972541809,0.03262631967663765,1.4110949742018875e-08,0.080067549853552439,0.024941748380661009,0.039848464727401736,0.19937031745910644,0.30006647109985352,0.79831112921237946,1
21:14:36.523,2.2992188930511475,0.9867480993270874,-8.8232526779174805,0.28815403580665588,0.030892670154571533,0.073236934840679169,-0.073631115257740021,0.11907512694597244,0.40419989824295044,0.0,0.2200680673122406,0.0,0.15041834115982056,0.0,0.25788480043411255,0.0020827222615480423,0.073118641972541809,0.03262631967663765,1.4110949742018875e-08,0.080067549853552439,0.024941748380661009,0.039848464727401736,0.19937031745910644,0.30006647109985352,0.79831112921237946,1
21:14:36.563,3.5158889293670654,-4.0044727325439453,-9.4172172546386719,0.28815403580665588,0.030892670154571533,0.073236934840679169,-0.039883438497781754,0.11907512694597244,0.0,0.0,0.0038724928162992001,0.0,0.15041834115982056,1.0988137722015381,0.25788480043411255,0.56251627206802368,0.073118641972541809,0.03262631967663765,1.4110949742018875e-08,0.080067549853552439,0.024941748380661009,0.039848464727401736,0.19937031745910644,0.30006647109985352,0.79831112921237946,1
21:14:36.617,3.5158889293670654,-4.0044727325439453,-9.4172172546386719,0.28815403580665588,0.030892670154571533,0.073236934840679169,-0.039883438497781754,0.11907512694597244,0.0,0.0,0.0038724928162992001,0.0,0.15041834115982056,1.0988137722015381,0.25788480043411255,0.56251627206802368,0.073118641972541809,0.03262631967663765,1.4110949742018875e-08,0.080067549853552439,0.024941748380661009,0.039848464727401736,0.19937031745910644,0.30006647109985352,0.79831112921237946,1
21:14:36.666,3.5158889293670654,-4.0044727325439453,-9.4172172546386719,0.28815403580665588,0.030892670154571533,0.073236934840679169,-0.039883438497781754,0.11907512694597244,0.0,0.0,0.0038724928162992001,0.0,0.15041834115982056,1.0988137722015381,0.25788480043411255,0.56251627206802368,0.073118641972541809,0.03262631967663765,1.4110949742018875e-08,0.080067549853552439,0.024941748380661009,0.039848464727401736,0.19937031745910644,0.30006647109985352,0.79831112921237946,1
21:14:36.719,3.5158889293670654,-4.0044727325439453,-9.4172172546386719,0.28815403580665588,0.030892670154571533,0.073236934840679169,-0.039883438497781754,0.11907512694597244,0.0,0.0,0.0038724928162992001,0.0,0.15041834115982056,1.0988137722015381,0.25788480043411255,0.56251627206802368,0.072162263095378876,0.036110933870077133,1.4110949742018875e-08,0.080693195252238975,0.024941748380661009,0.039848464727401736,0.19937031745910644,0.30006647109985352,0.79831112921237946,1
21:14:36.764,3.5158889293670654,-4.0044727325439453,-9.4172172546386719,0.28815403580665588,0.030892670154571533,0.073236934840679169,-0.039883438497781754,0.11907512694597244,0.0,0.0,0.0038724928162992001,0.0,0.15041834115982056,1.0988137722015381,0.25788480043411255,0.56251627206802368,0.072162263095378876,0.036110933870077133,1.4110949742018875e-08,0.080693195252238975,0.024941748380661009,0.039848464727401736,0.19937031745910644,0.30006647109985352,0.79831112921237946,1
21:14:36.851,3.5158889293670654,-4.0044727325439453,-9.4172172546386719,0.28815403580665588,0.030892670154571533,0.073236934840679169,-0.039883438497781754,0.00076657929457724094,0.0,0.0,0.0038724928162992001,0.0,0.15041834115982056,1.0988137722015381,0.25788480043411255,0.56251627206802368,0.072162263095378876,0.036110933870077133,1.4110949742018875e-08,0.080693195252238975,0.024941748380661009,0.039848464727401736,0.19937031745910644,0.30006647109985352,0.79831112921237946,1
21:14:36.875,0.77598637342453003,-1.7627344131469727,-8.6220703125,0.35180360078811646,0.10572749376296997,0.082291677594184875,0.038541492074728012,0.00076657929457724094,0.0,0.0,0.0022935173474252224,0.52453798055648804,0.19217193126678467,0.88687038421630859,0.50223606824874878,0.18042303621768951,0.072162263095378876,0.036110933870077133,1.4110949742018875e-08,0.080693195252238975,0.024941748380661009,0.039848464727401736,0.19937031745910644,0.30006647109985352,0.79831112921237946,1
21:14:36.930,0.77598637342453003,-1.7627344131469727,-8.6220703125,0.35180360078811646,0.10572749376296997,0.082291677594184875,0.038541492074728012,0.00076657929457724094,0.0,0.0,0.0022935173474252224,0.52453798055648804,0.19217193126678467,0.88687038421630859,0.50223606824874878,0.18042303621768951,0.072162263095378876,0.036110933870077133,1.4110949742018875e-08,0.080693195252238975,0.024941748380661009,0.039848464727401736,0.19937031745910644,0.30006647109985352,0.79831112921237946,1
21:14:36.982,0.77598637342453003,-1.7627344131469727,-8.6220703125,0.35180360078811646,0.10572749376296997,0.082291677594184875,0.038541492074728012,0.00076657929457724094,0.0,0.0,0.0022935173474252224,0.52453798055648804,0.19217193126678467,0.88687038421630859,0.50223606824874878,0.18042303621768951,0.072162263095378876,0.036110933870077133,1.4110949742018875e-08,0.080693195252238975,0.024941748380661009,0.039848464727401736,0.19937031745910644,0.30006647109985352,0.79831112921237946,1
21:14:37.020,0.77598637342453003,-1.7627344131469727,-8.6220703125,0.35180360078811646,0.10572749376296997,0.082291677594184875,0.038541492074728012,0.00076657929457724094,0.0,0.0,0.0022935173474252224,0.52453798055648804,0.19217193126678467,0.88687038421630859,0.50223606824874878,0.18042303621768951,0.072162263095378876,0.036110933870077133,1.4110949742018875e-08,0.080693195252238975,0.024941748380661009,0.039848464727401736,0.19937031745910644,0.30006647109985352,0.79831112921237946,1
21:14:37.073,0.77598637342453003,-1.7627344131469727,-8.6220703125,0.35180360078811646,0.10572749376296997,0.082291677594184875,0.038541492074728012,0.00076657929457724094,0.0,0.0,0.0022935173474252224,0.52453798055648804,0.19217193126678467,0.88687038421630859,0.50223606824874878,0.18042303621768951,0.072162263095378876,0.036110933870077133,1.4110949742018875e-08,0.080693195252238975,0.024941748380661009,0.039848464727401736,0.19937031745910644,0.30006647109985352,0.79831112921237946,1
21:14:37.127,0.77598637342453003,-1.7627344131469727,-8.6220703125,0.35180360078811646,0.10572749376296997,0.082291677594184875,0.038541492074728012,0.00076657929457724094,0.0,0.0,0.0022935173474252224,0.52453798055648804,0.19217193126678467,0.88687038421630859,0.50223606824874878,0.18042303621768951,0.072162263095378876,0.036110933870077133,1.4110949742018875e-08,0.080693195252238975,0.024941748380661009,0.039848464727401736,0.19937031745910644,0.30006647109985352,0.79831112921237946,1
21:14:37.191,0.77598637342453003,-1.7627344131469727,-8.6220703125,0.041811630129814148,0.15020228922367096,0.44661211967468262,0.038541492074728012,0.066344566643238068,0.0,0.0,0.0022935173474252224,0.38658025860786438,0.0,0.88687038421630859,0.0071072555147111416,0.18042303621768951,0.072162263095378876,0.036110933870077133,1.4110949742018875e-08,0.080693195252238975,0.024941748380661009,0.039848464727401736,0.19937031745910644,0.30006647109985352,0.79831112921237946,1
21:14:37.223,2.3662793636322021,1.6477735042572021,-9.3501567840576172,0.041811630129814148,0.15020228922367096,0.44661211967468262,-0.084560699760913849,0.066344566643238068,0.40727916359901428,0.44948253035545349,0.35074275732040405,0.38658025860786438,0.0,0.0,0.0071072555147111416,0.001802734681405127,0.062869355082511902,0.036110933870077133,1.4110949742018875e-08,0.072502105855349122,0.024941748380661009,0.039848464727401736,0.19937031745910644,0.30006647109985352,0.79831112921237946,1
21:14:37.276,2.3662793636322021,1.6477735042572021,-9.3501567840576172,0.041811630129814148,0.15020228922367096,0.44661211967468262,-0.084560699760913849,0.066344566643238068,0.40727916359901428,0.44948253035545349,0.35074275732040405,0.38658025860786438,0.0,0.0,0.0071072555147111416,0.001802734681405127,0.062869355082511902,0.036110933870077133,1.4110949742018875e-08,0.072502105855349122,0.024941748380661009,0.039848464727401736,0.19937031745910644,0.30006647109985352,0.79831112921237946,1
21:14:37.324,2.3662793636322021,1.6477735042572021,-9.3501567840576172,0.041811630129814148,0.15020228922367096,0.44661211967468262,-0.084560699760913849,0.066344566643238068,0.40727916359901428,0.44948253035545349,0.35074275732040405,0.38658025860786438,0.0,0.0,0.0071072555147111416,0.001802734681405127,0.062869355082511902,0.036110933870077133,1.4110949742018875e-08,0.072502105855349122,0.024941748380661009,0.039848464727401736,0.19937031745910644,0.30006647109985352,0.79831112921237946,1
21:14:37.381,2.3662793636322021,1.6477735042572021,-9.3501567840576172,0.041811630129814148,0.15020228922367096,0.44661211967468262,-0.084560699760913849,0.066344566643238068,0.40727916359901428,0.44948253035545349,0.35074275732040405,0.38658025860786438,0.0,0.0,0.0071072555147111416,0.001802734681405127,0.062869355082511902,0.036110933870077133,1.4110949742018875e-08,0.072502105855349122,0.024941748380661009,0.039848464727401736,0.19937031745910644,0.30006647109985352,0.79831112921237946,1
21:14:37.428,2.3662793636322021,1.6477735042572021,-9.3501567840576172,0.041811630129814148,0.15020228922367096,0.44661211967468262,-0.084560699760913849,0.066344566643238068,0.40727916359901428,0.44948253035545349,0.35074275732040405,0.38658025860786438,0.0,0.0,0.0071072555147111416,0.001802734681405127,0.062869355082511902,0.036110933870077133,1.4110949742018875e-08,0.072502105855349122,0.024941748380661009,0.039848464727401736,0.19937031745910644,0.30006647109985352,0.79831112921237946,1
21:14:37.512,2.3662793636322021,1.6477735042572021,-9.3501567840576172,0.041811630129814148,0.15020228922367096,0.44661211967468262,-0.084560699760913849,0.066344566643238068,0.40727916359901428,0.44948253035545349,0.35074275732040405,0.38658025860786438,0.0,0.0,0.0071072555147111416,0.001802734681405127,0.062869355082511902,0.036110933870077133,1.4110949742018875e-08,0.072502105855349122,0.024941748380661009,0.039848464727401736,0.19937031745910644,0.30006647109985352,0.79831112921237946,1
21:14:37.542,2.3662793636322021,-2.2704787254333496,-9.3501567840576172,0.23702134191989899,0.25007084012031555,0.2479403018951416,-0.084560699760913849,0.10891229659318924,0.0,0.0,0.023663641884922981,0.0,0.39192512631416321,0.0,0.31494614481925964,0.001802734681405127,0.062869355082511902,0.036110933870077133,1.4110949742018875e-08,0.072502105855349122,0.024941748380661009,0.039848464727401736,0.19937031745910644,0.30006647109985352,0.79831112921237946,1
21:14:37.581,2.0118165016174316,-2.2704787254333496,-10.317744255065918,0.23702134191989899,0.25007084012031555,0.2479403018951416,-0.077465839684009552,0.10891229659318924,0.0,0.0,0.023663641884922981,0.0,0.39192512631416321,1.5814435482025146,0.31494614481925964,0.83920454978942871,0.062869355082511902,0.036110933870077133,1.4110949742018875e-08,0.072502105855349122,0.024941748380661009,0.039848464727401736,0.19937031745910644,0.30006647109985352,0.79831112921237946,1
21:14:37.633,2.0118165016174316,-2.2704787254333496,-10.317744255065918,0.23702134191989899,0.25007084012031555,0.2479403018951416,-0.077465839684009552,0.10891229659318924,0.0,0.0,0.023663641884922981,0.0,0.39192512631416321,1.5814435482025146,0.31494614481925964,0.83920454978942871,0.062869355082511902,0.036110933870077133,1.4110949742018875e-08,0.072502105855349122,0.024941748380661009,0.039848464727401736,0.19937031745910644,0.30006647109985352,0.79831112921237946,1
21:14:37.684,2.0118165016174316,-2.2704787254333496,-10.317744255065918,0.23702134191989899,0.25007084012031555,0.2479403018951416,-0.077465839684009552,0.10891229659318924,0.0,0.0,0.023663641884922981,0.0,0.39192512631416321,1.5814435482025146,0.31494614481925964,0.83920454978942871,0.062869355082511902,0.036110933870077133,1.4110949742018875e-08,0.072502105855349122,0.024941748380661009,0.039848464727401736,0.19937031745910644,0.30006647109985352,0.79831112921237946,1
21:14:37.740,2.0118165016174316,-2.2704787254333496,-10.317744255065918,0.23702134191989899,0.25007084012031555,0.2479403018951416,-0.077465839684009552,0.10891229659318924,0.0,0.0,0.023663641884922981,0.0,0.39192512631416321,1.5814435482025146,0.31494614481925964,0.83920454978942871,0.049702145159244537,0.036110479384660721,1.4110949742018875e-08,0.061435087326549974,0.024941748380661009,0.039848464727401736,0.19937031745910644,0.30006647109985352,0.79831112921237946,1
21:14:37.782,2.0118165016174316,-2.2704787254333496,-10.317744255065918,0.23702134191989899,0.25007084012031555,0.2479403018951416,-0.077465839684009552,0.10891229659318924,0.0,0.0,0.023663641884922981,0.0,0.39192512631416321,1.5814435482025146,0.31494614481925964,0.83920454978942871,0.049702145159244537,0.036110479384660721,1.4110949742018875e-08,0.061435087326549974,0.024941748380661009,0.039848464727401736,0.19937031745910644,0.30006647109985352,0.79831112921237946,1
21:14:37.865,2.0118165016174316,-2.2704787254333496,-10.317744255065918,0.23702134191989899,-0.29294773936271667,0.2479403018951416,-0.077465839684009552,0.026460949331521988,0.0,0.0,0.023663641884922981,0.12226849794387817,0.062817938625812531,1.5814435482025146,0.0,0.83920454978942871,0.049702145159244537,0.036110479384660721,1.4110949742018875e-08,0.061435087326549974,0.024941748380661009,0.039848464727401736,0.19937031745910644,0.30006647109985352,0.79831112921237946,1
21:14:37.888,-2.423759937286377,0.96758794784545898,-11.908037185668945,0.16511599719524384,-0.29294773936271667,0.061785340309143066,0.0086290203034877777,0.026460949331521988,0.0,0.0,0.22918450832366943,0.12226849794387817,0.062817938625812531,0.83545231819152832,0.0,1.4915587902069092,0.049702145159244537,0.036110479384660721,1.4110949742018875e-08,0.061435087326549974,0.024941748380661009,0.039848464727401736,0.19937031745910644,0.30006647109985352,0.79831112921237946,1
21:14:37.944,-2.423759937286377,0.96758794784545898,-11.908037185668945,0.16511599719524384,-0.29294773936271667,0.061785340309143066,0.0086290203034877777,0.026460949331521988,0.0,0.0,0.22918450832366943,0.12226849794387817,0.062817938625812531,0.83545231819152832,0.0,1.4915587902069092,0.049702145159244537,0.036110479384660721,1.4110949742018875e-08,0.061435087326549974,0.024941748380661009,0.039848464727401736,0.19937031745910644,0.30006647109985352,0.79831112921237946,1
21:14:37.985,-2.423759937286377,0.96758794784545898,-11.908037185668945,0.16511599719524384,-0.29294773936271667,0.061785340309143066,0.0086290203034877777,0.026460949331521988,0.0,0.0,0.22918450832366943,0.12226849794387817,0.062817938625812531,0.83545231819152832,0.0,1.4915587902069092,0.049702145159244537,0.036110479384660721,1.4110949742018875e-08,0.061435087326549974,0.024941748380661009,0.039848464727401736,0.19937031745910644,0.30006647109985352,0.79831112921237946,1
21:14:38.039,-2.423759937286377,0.96758794784545898,-11.908037185668945,0.16511599719524384,-0.29294773936271667,0.061785340309143066,0.0086290203034877777,0.026460949331521988,0.0,0.0,0.22918450832366943,0.12226849794387817,0.062817938625812531,0.83545231819152832,0.0,1.4915587902069092,0.049702145159244537,0.036110479384660721,1.4110949742018875e-08,0.061435087326549974,0.024941748380661009,0.039848464727401736,0.19937031745910644,0.30006647109985352,0.79831112921237946,1
21:14:38.086,-2.423759937286377,0.96758794784545898,-11.908037185668945,0.16511599719524384,-0.29294773936271667,0.061785340309143066,0.0086290203034877777,0.026460949331521988,0.0,0.0,0.22918450832366943,0.12226849794387817,0.062817938625812531,0.83545231819152832,0.0,1.4915587902069092,0.049702145159244537,0.036110479384660721,1.4110949742018875e-08,0.061435087326549974,0.024941748380661009,0.039848464727401736,0.19937031745910644,0.30006647109985352,0.79831112921237946,1
21:14:38.142,-2.423759937286377,0.96758794784545898,-11.908037185668945,0.16511599719524384,-0.29294773936271667,0.061785340309143066,0.0086290203034877777,0.026460949331521988,0.0,0.0,0.22918450832366943,0.12226849794387817,0.062817938625812531,0.83545231819152832,0.0,1.4915587902069092,0.049702145159244537,0.036110479384660721,1.4110949742018875e-08,0.061435087326549974,0.024941748380661009,0.039848464727401736,0.19937031745910644,0.30006647109985352,0.79831112921237946,1
21:14:38.206,-2.423759937286377,0.96758794784545898,-11.908037185668945,0.08628641813993454,0.27004453539848328,-0.32650354504585266,0.0086290203034877777,0.078424759209156036,0.0,0.0,0.22918450832366943,0.072534792125225067,0.0,0.83545231819152832,0.033347140997648239,1.4915587902069092,0.049702145159244537,0.036110479384660721,1.4110949742018875e-08,0.061435087326549974,0.024941748380661009,0.039848464727401736,0.19937031745910644,0.30006647109985352,0.79831112921237946,1
21:14:38.242,0.90052735805511475,2.2225782871246338,-8.4687891006469727,0.08628641813993454,0.27004453539848328,-0.32650354504585266,-0.051004711538553238,0.078424759209156036,0.25965628027915955,0.44587269425392151,1.6477956771850586,0.072534792125225067,0.0,0.0,0.033347140997648239,0.0018306485144421458,0.049702145159244537,0.036110479384660721,1.4110949742018875e-08,0.061435087326549974,0.024941748380661009,0.039848464727401736,0.19937031745910644,0.30006647109985352,0.79831112921237946,1
21:14:38.288,0.90052735805511475,2.2225782871246338,-8.4687891006469727,0.08628641813993454,0.27004453539848328,-0.32650354504585266,-0.051004711538553238,0.078424759209156036,0.25965628027915955,0.44587269425392151,1.6477956771850586,0.072534792125225067,0.0,0.0,0.033347140997648239,0.0018306485144421458,0.046184569597244263,0.036111384630203247,1.4110949742018875e-08,0.058626329995944464,0.024941748380661009,0.039848464727401736,0.19937031745910644,0.30006647109985352,0.79831112921237946,1
21:14:38.343,0.90052735805511475,2.2225782871246338,-8.4687891006469727,0.08628641813993454,0.27004453539848328,-0.32650354504585266,-0.051004711538553238,0.078424759209156036,0.25965628027915955,0.44587269425392151,1.6477956771850586,0.072534792125225067,0.0,0.0,0.033347140997648239,0.0018306485144421458,0.046184569597244263,0.036111384630203247,1.4110949742018875e-08,0.058626329995944464,0.024941748380661009,0.039848464727401736,0.19937031745910644,0.30006647109985352,0.79831112921237946,1
21:14:38.388,0.90052735805511475,2.2225782871246338,-8.4687891006469727,0.08628641813993454,0.27004453539848328,-0.32650354504585266,-0.051004711538553238,0.078424759209156036,0.25965628027915955,0.44587269425392151,1.6477956771850586,0.072534792125225067,0.0,0.0,0.033347140997648239,0.0018306485144421458,0.046184569597244263,0.036111384630203247,1.4110949742018875e-08,0.058626329995944464,0.024941748380661009,0.039848464727401736,0.19937031745910644,0.30006647109985352,0.79831112921237946,1
21:14:41.648,0.68976563215255737,0.26824221014976501,-10.087822914123535,-0.079095885157585144,0.0087884319946169853,0.0045273741707205772,-0.00095874466933310032,0.069220848381519318,0.1138596311211586,0.0,1.6992411613464355,0.0,0.0035626059398055077,0.16086083650588989,0.030706370249390602,0.88774633407592773,0.0,0.0,0.0,0.0,0.024941748380661009,0.039848464727401736,0.19937031745910644,0.30006647109985352,0.79831112921237946,1
21:14:41.704,0.68976563215255737,0.26824221014976501,-10.087822914123535,-0.079095885157585144,0.0087884319946169853,0.0045273741707205772,-0.00095874466933310032,0.069220848381519318,0.1138596311211586,0.0,1.6992411613464355,0.0,0.0035626059398055077,0.16086083650588989,0.030706370249390602,0.88774633407592773,0.0,0.0,0.0,0.0,0.024941748380661009,0.039848464727401736,0.19937031745910644,0.30006647109985352,0.79831112921237946,1
21:14:41.749,0.68976563215255737,0.26824221014976501,-10.087822914123535,-0.079095885157585144,0.0087884319946169853,0.0045273741707205772,-0.00095874466933310032,0.069220848381519318,0.1138596311211586,0.0,1.6992411613464355,0.0,0.0035626059398055077,0.16086083650588989,0.030706370249390602,0.88774633407592773,0.0,0.0,0.0,0.0,0.024941748380661009,0.039848464727401736,0.19937031745910644,0.30006647109985352,0.79831112921237946,1
21:14:41.801,0.68976563215255737,0.26824221014976501,-10.087822914123535,-0.079095885157585144,0.0087884319946169853,0.0045273741707205772,-0.00095874466933310032,0.069220848381519318,0.1138596311211586,0.0,1.6992411613464355,0.0,0.0035626059398055077,0.16086083650588989,0.030706370249390602,0.88774633407592773,0.0,0.0,0.0,0.0,0.024941748380661009,0.039848464727401736,0.19937031745910644,0.30006647109985352,0.79831112921237946,1
21:14:41.853,0.68976563215255737,0.26824221014976501,-10.087822914123535,-0.079095885157585144,0.0087884319946169853,0.0045273741707205772,-0.00095874466933310032,0.069220848381519318,0.1138596311211586,0.0,1.6992411613464355,0.0,0.0035626059398055077,0.16086083650588989,0.030706370249390602,0.88774633407592773,0.0,0.0,0.0,0.0,0.024941748380661009,0.039848464727401736,0.19937031745910644,0.30006647109985352,0.79831112921237946,1
21:14:41.906,0.68976563215255737,0.26824221014976501,-10.087822914123535,0.0058589545078575611,-0.0034621094819158316,-0.014114754274487495,-0.00095874466933310032,0.069412536919116974,0.1138596311211586,0.0,1.3328750133514404,0.0,0.023477949202060699,0.16086083650588989,0.17374464869499207,0.88774633407592773,0.0,0.0,0.0,0.0,0.024941748380661009,0.039848464727401736,0.19937031745910644,0.30006647109985352,0.79831112921237946,1
21:14:41.965,0.91010743379592896,0.086220704019069672,-9.9632816314697266,0.0058589545078575611,-0.0034621094819158316,-0.014114754274487495,-0.0067108315415680408,0.069412536919116974,0.079479716718196869,0.0,1.3328750133514404,0.0,0.023477949202060699,0.19100487232208252,0.17374464869499207,0.77771824598312378,0.0,0.0,0.0,0.0,0.024941748380661009,0.039848464727401736,0.19937031745910644,0.30006647109985352,0.79831112921237946,1
21:14:42.008,0.91010743379592896,0.086220704019069672,-9.9632816314697266,0.0058589545078575611,-0.0034621094819158316,-0.014114754274487495,-0.0067108315415680408,0.069412536919116974,0.079479716718196869,0.0,1.3328750133514404,0.0,0.023477949202060699,0.19100487232208252,0.17374464869499207,0.77771824598312378,0.0,0.0,0.0,0.0,0.024941748380661009,0.039848464727401736,0.19937031745910644,0.30006647109985352,0.79831112921237946,1
21:14:42.052,0.91010743379592896,0.086220704019069672,-9.9632816314697266,0.0058589545078575611,-0.0034621094819158316,-0.014114754274487495,-0.0067108315415680408,0.069412536919116974,0.079479716718196869,0.0,1.3328750133514404,0.0,0.023477949202060699,0.19100487232208252,0.17374464869499207,0.77771824598312378,0.0,0.0,0.0,0.0,0.024941748380661009,0.039848464727401736,0.19937031745910644,0.30006647109985352,0.79831112921237946,1
21:14:42.109,0.91010743379592896,0.086220704019069672,-9.9632816314697266,0.0058589545078575611,-0.0034621094819158316,-0.014114754274487495,-0.0067108315415680408,0.069412536919116974,0.079479716718196869,0.0,1.3328750133514404,0.0,0.023477949202060699,0.19100487232208252,0.17374464869499207,0.77771824598312378,0.0,0.0,0.0,0.0,0.024941748380661009,0.039848464727401736,0.19937031745910644,0.30006647109985352,0.79831112921237946,1
21:14:42.151,0.91010743379592896,0.086220704019069672,-9.9632816314697266,0.0058589545078575611,-0.0034621094819158316,-0.014114754274487495,-0.0067108315415680408,0.069412536919116974,0.079479716718196869,0.0,1.3328750133514404,0.0,0.023477949202060699,0.19100487232208252,0.17374464869499207,0.77771824598312378,0.0,0.0,0.0,0.0,0.024941748380661009,0.039848464727401736,0.19937031745910644,0.30006647109985352,0.79831112921237946,1
21:14:42.236,0.91010743379592896,0.086220704019069672,-9.9632816314697266,0.0058589545078575611,-0.0034621094819158316,-0.014114754274487495,-0.0067108315415680408,0.069412536919116974,0.079479716718196869,0.0,1.3328750133514404,0.0,0.023477949202060699,0.19100487232208252,0.17374464869499207,0.77771824598312378,0.0,0.0,0.0,0.0,0.024941748380661009,0.039848464727401736,0.19937031745910644,0.30006647109985352,0.79831112921237946,1
21:14:42.258,1.0633887052536011,0.095800787210464478,-9.9345417022705078,-0.015712650492787361,0.18801917135715485,0.14727281033992767,-0.011888328939676285,0.092614002525806427,0.0,0.021870236843824387,0.0020601791329681873,1.3057104349136353,0.10057005286216736,0.0,1.4771885871887207,0.0049576065503060818,0.0,0.0,0.0,0.0,0.024941748380661009,0.039848464727401736,0.19937031745910644,0.30006647109985352,0.79831112921237946,1
21:14:42.313,1.0633887052536011,0.095800787210464478,-9.9345417022705078,-0.015712650492787361,0.18801917135715485,0.14727281033992767,-0.011888328939676285,0.092614002525806427,0.0,0.021870236843824387,0.0020601791329681873,1.3057104349136353,0.10057005286216736,0.0,1.4771885871887207,0.0049576065503060818,0.0,0.0,0.0,0.0,0.024941748380661009,0.039848464727401736,0.19937031745910644,0.30006647109985352,0.79831112921237946,1
21:14:42.354,1.0633887052536011,0.095800787210464478,-9.9345417022705078,-0.015712650492787361,0.18801917135715485,0.14727281033992767,-0.011888328939676285,0.092614002525806427,0.0,0.021870236843824387,0.0020601791329681873,1.3057104349136353,0.10057005286216736,0.0,1.4771885871887207,0.0049576065503060818,0.0,0.0,0.0,0.0,0.024941748380661009,0.039848464727401736,0.19937031745910644,0.30006647109985352,0.79831112921237946,1
21:14:42.406,1.0633887052536011,0.095800787210464478,-9.9345417022705078,-0.015712650492787361,0.18801917135715485,0.14727281033992767,-0.011888328939676285,0.092614002525806427,0.0,0.021870236843824387,0.0020601791329681873,1.3057104349136353,0.10057005286216736,0.0,1.4771885871887207,0.0049576065503060818,0.0,0.0,0.0,0.0,0.024941748380661009,0.039848464727401736,0.19937031745910644,0.30006647109985352,0.79831112921237946,1
21:14:42.458,1.0633887052536011,0.095800787210464478,-9.9345417022705078,-0.015712650492787361,0.18801917135715485,0.14727281033992767,-0.011888328939676285,0.092614002525806427,0.0,0.021870236843824387,0.0020601791329681873,1.3057104349136353,0.10057005286216736,0.0,1.4771885871887207,0.0049576065503060818,0.0,0.0,0.0,0.0,0.024941748380661009,0.039848464727401736,0.19937031745910644,0.30006647109985352,0.79831112921237946,1
21:14:42.510,1.0633887052536011,0.095800787210464478,-9.9345417022705078,-0.015712650492787361,0.18801917135715485,0.14727281033992767,-0.011888328939676285,0.092614002525806427,0.0,0.021870236843824387,0.0020601791329681873,1.3057104349136353,0.10057005286216736,0.0,1.4771885871887207,0.0049576065503060818,0.0,0.0,0.0,0.0,0.024941748380661009,0.039848464727401736,0.19937031745910644,0.30006647109985352,0.79831112921237946,1
21:14:42.576,1.0633887052536011,0.095800787210464478,-9.9345417022705078,-0.015712650492787361,0.29134982824325562,0.14727281033992767,-0.011888328939676285,0.22491961717605591,0.0,0.021870236843824387,0.0020601791329681873,1.1400575637817383,0.38126754760742188,0.0,0.62261563539505005,0.0049576065503060818,0.0,0.0,0.0,0.0,0.024941748380661009,0.039848464727401736,0.19937031745910644,0.30006647109985352,0.79831112921237946,1
21:14:42.610,3.0752053260803223,0.44068360328674316,-9.9249610900878906,-0.032490566372871399,0.29134982824325562,0.04314320906996727,-0.027419868856668472,0.22491961717605591,0.0,0.67512810230255127,0.0027629074174910784,1.1400575637817383,0.38126754760742188,0.0,0.62261563539505005,0.0033658642787486315,0.0,0.0,0.0,0.0,0.024941748380661009,0.039848464727401736,0.19937031745910644,0.30006647109985352,0.79831112921237946,1
21:14:42.658,3.0752053260803223,0.44068360328674316,-9.9249610900878906,-0.032490566372871399,0.29134982824325562,0.04314320906996727,-0.027419868856668472,0.22491961717605591,0.0,0.67512810230255127,0.0027629074174910784,1.1400575637817383,0.38126754760742188,0.0,0.62261563539505005,0.0033658642787486315,0.0,0.0,0.0,0.0,0.024941748380661009,0.039848464727401736,0.19937031745910644,0.30006647109985352,0.79831112921237946,1
21:14:42.712,3.0752053260803223,0.44068360328674316,-9.9249610900878906,-0.032490566372871399,0.29134982824325562,0.04314320906996727,-0.027419868856668472,0.22491961717605591,0.0,0.67512810230255127,0.0027629074174910784,1.1400575637817383,0.38126754760742188,0.0,0.62261563539505005,0.0033658642787486315,0.0,0.0,0.0,0.0,0.024941748380661009,0.039848464727401736,0.19937031745910644,0.30006647109985352,0.79831112921237946,1
21:14:42.760,3.0752053260803223,0.44068360328674316,-9.9249610900878906,-0.032490566372871399,0.29134982824325562,0.04314320906996727,-0.027419868856668472,0.22491961717605591,0.0,0.67512810230255127,0.0027629074174910784,1.1400575637817383,0.38126754760742188,0.0,0.62261563539505005,0.0033658642787486315,0.0,0.0,0.0,0.0,0.024941748380661009,0.039848464727401736,0.19937031745910644,0.30006647109985352,0.79831112921237946,1
21:14:42.808,3.0752053260803223,0.44068360328674316,-9.9249610900878906,-0.032490566372871399,0.29134982824325562,0.04314320906996727,-0.027419868856668472,0.22491961717605591,0.0,0.67512810230255127,0.0027629074174910784,1.1400575637817383,0.38126754760742188,0.0,0.62261563539505005,0.0033658642787486315,0.0,0.0,0.0,0.0,0.024941748380661009,0.039848464727401736,0.19937031745910644,0.30006647109985352,0.79831112921237946,1
21:14:42.874,3.0752053260803223,0.44068360328674316,-9.9249610900878906,-0.032490566372871399,0.29134982824325562,0.04314320906996727,-0.027419868856668472,0.22491961717605591,0.0,0.67512810230255127,0.0027629074174910784,1.1400575637817383,0.38126754760742188,0.0,0.62261563539505005,0.0033658642787486315,0.0,0.0,0.0,0.0,0.024941748380661009,0.039848464727401736,0.19937031745910644,0.30006647109985352,0.79831112921237946,1
21:14:42.912,3.0752053260803223,0.44068360328674316,-9.9249610900878906,-0.032490566372871399,-0.40799629688262939,0.04314320906996727,-0.027419868856668472,0.10162622481584549,0.0,0.67512810230255127,0.0027629074174910784,1.0964305400848389,0.20952677726745605,0.0,0.92276722192764282,0.0033658642787486315,0.0,0.0,4.9975912912117919e-23,4.9975912912117919e-23,0.024941748380661009,0.039848464727401736,0.19937031745910644,0.30006647109985352,0.79831112921237946,1
21:14:42.956,1.935175895690918,0.50774413347244263,-10.547666549682617,0.0463390052318573,-0.40799629688262939,-0.18136127293109894,-0.026269260793924332,0.10162622481584549,0.0,0.44587269425392151,0.0035136307124048471,1.0964305400848389,0.20952677726745605,0.0,0.92276722192764282,0.0020546356681734324,0.0,0.0,4.9975912912117919e-23,4.9975912912117919e-23,0.024941748380661009,0.039848464727401736,0.19937031745910644,0.30006647109985352,0.79831112921237946,1
21:14:43.010,1.935175895690918,0.50774413347244263,-10.547666549682617,0.0463390052318573,-0.40799629688262939,-0.18136127293109894,-0.026269260793924332,0.10162622481584549,0.0,0.44587269425392151,0.0035136307124048471,1.0964305400848389,0.20952677726745605,0.0,0.92276722192764282,0.0020546356681734324,0.0,0.0,4.9975912912117919e-23,4.9975912912117919e-23,0.024941748380661009,0.039848464727401736,0.19937031745910644,0.30006647109985352,0.79831112921237946,1
21:14:43.059,1.935175895690918,0.50774413347244263,-10.547666549682617,0.0463390052318573,-0.40799629688262939,-0.18136127293109894,-0.026269260793924332,0.10162622481584549,0.0,0.44587269425392151,0.0035136307124048471,1.0964305400848389,0.20952677726745605,0.0,0.92276722192764282,0.0020546356681734324,0.0,0.0,4.9975912912117919e-23,4.9975912912117919e-23,0.024941748380661009,0.039848464727401736,0.19937031745910644,0.30006647109985352,0.79831112921237946,1
21:14:43.109,1.935175895690918,0.50774413347244263,-10.547666549682617,0.0463390052318573,-0.40799629688262939,-0.18136127293109894,-0.026269260793924332,0.10162622481584549,0.0,0.44587269425392151,0.0035136307124048471,1.0964305400848389,0.20952677726745605,0.0,0.92276722192764282,0.0020546356681734324,0.0,0.0,4.9975912912117919e-23,4.9975912912117919e-23,0.024941748380661009,0.039848464727401736,0.19937031745910644,0.30006647109985352,0.79831112921237946,1
21:14:43.160,1.935175895690918,0.50774413347244263,-10.547666549682617,0.0463390052318573,-0.40799629688262939,-0.18136127293109894,-0.026269260793924332,0.10162622481584549,0.0,0.44587269425392151,0.0035136307124048471,1.0964305400848389,0.20952677726745605,0.0,0.92276722192764282,0.0020546356681734324,0.0,0.0,4.9975912912117919e-23,4.9975912912117919e-23,0.024941748380661009,0.039848464727401736,0.19937031745910644,0.30006647109985352,0.79831112921237946,1
21:14:43.242,1.935175895690918,0.50774413347244263,-10.547666549682617,0.0463390052318573,-0.40799629688262939,-0.18136127293109894,-0.026269260793924332,0.076506920158863068,0.0,0.44587269425392151,0.0035136307124048471,1.0362675189971924,0.20952677726745605,0.0,0.92276722192764282,0.0020546356681734324,0.0,0.0,4.9975912912117919e-23,4.9975912912117919e-23,0.024941748380661009,0.039848464727401736,0.19937031745910644,0.30006647109985352,0.79831112921237946,1
21:14:43.265,1.2837305068969727,0.29698243737220764,-9.9441213607788086,0.00026631611399352551,0.046871636062860489,0.020506341010332108,-0.026269260793924332,0.076506920158863068,0.0,0.63064813613891602,0.0037526360247284174,1.0362675189971924,0.37102556228637695,0.0,1.0478674173355103,0.0020827222615480423,0.0,0.0,4.9975912912117919e-23,4.9975912912117919e-23,0.024941748380661009,0.039848464727401736,0.19937031745910644,0.30006647109985352,0.79831112921237946,1
21:14:43.315,1.2837305068969727,0.29698243737220764,-9.9441213607788086,0.00026631611399352551,0.046871636062860489,0.020506341010332108,-0.026269260793924332,0.076506920158863068,0.0,0.63064813613891602,0.0037526360247284174,1.0362675189971924,0.37102556228637695,0.0,1.0478674173355103,0.0020827222615480423,0.0,0.0,4.9975912912117919e-23,4.9975912912117919e-23,0.024941748380661009,0.039848464727401736,0.19937031745910644,0.30006647109985352,0.79831112921237946,1
21:14:43.365,1.2837305068969727,0.29698243737220764,-9.9441213607788086,0.00026631611399352551,0.046871636062860489,0.020506341010332108,-0.026269260793924332,0.076506920158863068,0.0,0.63064813613891602,0.0037526360247284174,1.0362675189971924,0.37102556228637695,0.0,1.0478674173355103,0.0020827222615480423,0.0,0.0,4.9975912912117919e-23,4.9975912912117919e-23,0.024941748380661009,0.039848464727401736,0.19937031745910644,0.30006647109985352,0.79831112921237946,1
21:14:43.412,1.2837305068969727,0.29698243737220764,-9.9441213607788086,0.00026631611399352551,0.046871636062860489,0.020506341010332108,-0.026269260793924332,0.076506920158863068,0.0,0.63064813613891602,0.0037526360247284174,1.0362675189971924,0.37102556228637695,0.0,1.0478674173355103,0.0020827222615480423,0.0,0.0,4.9975912912117919e-23,4.9975912912117919e-23,0.024941748380661009,0.039848464727401736,0.19937031745910644,0.30006647109985352,0.79831112921237946,1
21:14:43.464,1.2837305068969727,0.29698243737220764,-9.9441213607788086,0.00026631611399352551,0.046871636062860489,0.020506341010332108,-0.026269260793924332,0.076506920158863068,0.0,0.63064813613891602,0.0037526360247284174,1.0362675189971924,0.37102556228637695,0.0,1.0478674173355103,0.0020827222615480423,-0.0070150690153241158,0.021777549758553505,-4.9670536128587628e-08,0.022879529426509223,0.024941748380661009,0.039848464727401736,0.19937031745910644,0.30006647109985352,0.79831112921237946,1
21:14:43.512,1.2837305068969727,0.29698243737220764,-9.9441213607788086,0.00026631611399352551,0.046871636062860489,0.020506341010332108,-0.026269260793924332,0.076506920158863068,0.0,0.63064813613891602,0.0037526360247284174,1.0362675189971924,0.37102556228637695,0.0,1.0478674173355103,0.0020827222615480423,-0.0070150690153241158,0.021777549758553505,-4.9670536128587628e-08,0.022879529426509223,0.024941748380661009,0.039848464727401736,0.19937031745910644,0.30006647109985352,0.79831112921237946,1
21:14:43.582,1.2837305068969727,0.29698243737220764,-9.9441213607788086,-0.086819052696228027,-0.0034621094819158316,-0.0063915867358446121,-0.026269260793924332,0.079574890434741974,0.0,0.63064813613891602,0.0037526360247284174,0.9687843918800354,0.40957528352737427,0.0,1.1844695806503296,0.0020827222615480423,-0.0070150690153241158,0.021777549758553505,-4.9670536128587628e-08,0.022879529426509223,0.024941748380661009,0.039848464727401736,0.19937031745910644,0.30006647109985352,0.79831112921237946,1
21:14:43.615,1.1017090082168579,0.75682622194290161,-10.02076244354248,-0.086819052696228027,-0.0034621094819158316,-0.0063915867358446121,-0.051771465688943863,0.079574890434741974,0.0,0.51254779100418091,0.0035136307124048471,0.9687843918800354,0.40957528352737427,0.0,1.1844695806503296,0.0024778225924819708,-0.0070150690153241158,0.021777549758553505,-4.9670536128587628e-08,0.022879529426509223,0.024941748380661009,0.039848464727401736,0.19937031745910644,0.30006647109985352,0.79831112921237946,1
21:14:43.664,1.1017090082168579,0.75682622194290161,-10.02076244354248,-0.086819052696228027,-0.0034621094819158316,-0.0063915867358446121,-0.051771465688943863,0.079574890434741974,0.0,0.51254779100418091,0.0035136307124048471,0.9687843918800354,0.40957528352737427,0.0,1.1844695806503296,0.0024778225924819708,-0.0070150690153241158,0.021777549758553505,-4.9670536128587628e-08,0.022879529426509223,0.024941748380661009,0.039848464727401736,0.19937031745910644,0.30006647109985352,0.79831112921237946,1
21:14:43.717,1.1017090082168579,0.75682622194290161,-10.02076244354248,-0.086819052696228027,-0.0034621094819158316,-0.0063915867358446121,-0.051771465688943863,0.079574890434741974,0.0,0.51254779100418091,0.0035136307124048471,0.9687843918800354,0.40957528352737427,0.0,1.1844695806503296,0.0024778225924819708,-0.0070150690153241158,0.021777549758553505,-4.9670536128587628e-08,0.022879529426509223,0.024941748380661009,0.039848464727401736,0.19937031745910644,0.30006647109985352,0.79831112921237946,1
21:14:43.766,1.1017090082168579,0.75682622194290161,-10.02076244354248,-0.086819052696228027,-0.0034621094819158316,-0.0063915867358446121,-0.051771465688943863,0.079574890434741974,0.0,0.51254779100418091,0.0035136307124048471,0.9687843918800354,0.40957528352737427,0.0,1.1844695806503296,0.0024778225924819708,-0.0070150690153241158,0.021777549758553505,-4.9670536128587628e-08,0.022879529426509223,0.024941748380661009,0.039848464727401736,0.19937031745910644,0.30006647109985352,0.79831112921237946,1
21:14:43.813,1.1017090082168579,0.75682622194290161,-10.02076244354248,-0.086819052696228027,-0.0034621094819158316,-0.0063915867358446121,-0.051771465688943863,0.079574890434741974,0.0,0.51254779100418091,0.0035136307124048471,0.9687843918800354,0.40957528352737427,0.0,1.1844695806503296,0.0024778225924819708,-0.0070150690153241158,0.021777549758553505,-4.9670536128587628e-08,0.022879529426509223,0.024941748380661009,0.039848464727401736,0.19937031745910644,0.30006647109985352,0.79831112921237946,1
