timestamp,accel_x,accel_y,accel_z,gyro_x,gyro_y,gyro_z,angle_x,angle_y,lfoot_fl,lfoot_fr,lfoot_rl,lfoot_rr,rfoot_fl,rfoot_fr,rfoot_rl,rfoot_rr,vx,vy,wz,vtotal,StepHeight,MaxStepX,MaxStepY,MaxStepTheta,Frequency,stable
16:51:50.528,0.91010743379592896,0.10538086295127869,-10.011181831359863,-0.00026631611399352551,0.00053263222798705101,-0.0013315805699676275,-0.007478062529116869,0.055031124502420425,0.11706903576850891,0.0,1.2140792608261108,0.49374979734420776,0.053116556257009506,0.42535945773124695,0.86651617288589478,0.72644752264022827,0.0,0.0,0.0,0.0,0.025000000000000001,0.040000000000000001,0.14000000000000001,0.29999999999999999,0.80000000000000004,1
16:51:50.601,0.91010743379592896,0.10538086295127869,-10.011181831359863,-0.001597896683961153,0.00079894834198057652,-0.00053263222798705101,-0.007478062529116869,0.055223289877176285,0.11706903576850891,0.0,1.2188385725021362,0.49235394597053528,0.053749006241559982,0.42535945773124695,0.86651617288589478,0.72644752264022827,0.0,0.0,0.0,0.0,0.025000000000000001,0.040000000000000001,0.14000000000000001,0.29999999999999999,0.80000000000000004,1
16:51:50.626,0.93884772062301636,0.10538086295127869,-10.011181831359863,-0.001597896683961153,0.00079894834198057652,-0.00053263222798705101,-0.0078614391386508942,0.055223289877176285,0.11706903576850891,0.0,1.2188385725021362,0.49235394597053528,0.053749006241559982,0.42914220690727234,0.86651617288589478,0.73155504465103149,0.0,0.0,0.0,0.0,0.025000000000000001,0.040000000000000001,0.14000000000000001,0.29999999999999999,0.80000000000000004,1
16:51:50.682,0.93884772062301636,0.10538086295127869,-10.011181831359863,-0.001597896683961153,0.00079894834198057652,-0.00053263222798705101,-0.0078614391386508942,0.055223289877176285,0.11706903576850891,0.0,1.2188385725021362,0.49235394597053528,0.053749006241559982,0.42914220690727234,0.86651617288589478,0.73155504465103149,0.0,0.0,0.0,0.0,0.025000000000000001,0.040000000000000001,0.14000000000000001,0.29999999999999999,0.80000000000000004,1
16:51:50.733,0.93884772062301636,0.10538086295127869,-10.011181831359863,-0.001597896683961153,0.00079894834198057652,-0.00053263222798705101,-0.0078614391386508942,0.055223289877176285,0.11706903576850891,0.0,1.2188385725021362,0.49235394597053528,0.053749006241559982,0.42914220690727234,0.86651617288589478,0.73155504465103149,0.0,0.0,0.0,0.0,0.025000000000000001,0.040000000000000001,0.14000000000000001,0.29999999999999999,0.80000000000000004,1
16:51:50.778,0.93884772062301636,0.10538086295127869,-10.011181831359863,-0.001597896683961153,0.00079894834198057652,-0.00053263222798705101,-0.0078614391386508942,0.055223289877176285,0.11706903576850891,0.0,1.2188385725021362,0.49235394597053528,0.053749006241559982,0.42914220690727234,0.86651617288589478,0.73155504465103149,0.0,0.0,0.0,0.0,0.025000000000000001,0.040000000000000001,0.14000000000000001,0.29999999999999999,0.80000000000000004,1
16:51:50.827,0.93884772062301636,0.10538086295127869,-10.011181831359863,-0.001597896683961153,0.00079894834198057652,-0.00053263222798705101,-0.0078614391386508942,0.055223289877176285,0.11706903576850891,0.0,1.2188385725021362,0.49235394597053528,0.053749006241559982,0.42914220690727234,0.86651617288589478,0.73155504465103149,0.0,0.0,0.0,0.0,0.025000000000000001,0.040000000000000001,0.14000000000000001,0.29999999999999999,0.80000000000000004,1
16:51:50.929,0.93884772062301636,0.10538086295127869,-10.011181831359863,-0.001597896683961153,0.00079894834198057652,-0.00053263222798705101,-0.0078614391386508942,0.054839435964822769,0.11706903576850891,0.0,1.2188385725021362,0.49096417427062988,0.053749006241559982,0.42914220690727234,0.86651617288589478,0.73155504465103149,0.0,0.0,0.0,0.0,0.025000000000000001,0.040000000000000001,0.14000000000000001,0.29999999999999999,0.80000000000000004,1
16:51:50.958,0.91010743379592896,0.10538086295127869,-10.011181831359863,-0.0018642127979546785,0.00079894834198057652,0.0034621094819158316,-0.007478062529116869,0.054839435964822769,0.11753235012292862,0.0,1.2188385725021362,0.49096417427062988,0.052697151899337769,0.42724713683128357,0.87282085418701172,0.72899323701858521,0.0,0.0,0.0,0.0,0.025000000000000001,0.040000000000000001,0.14000000000000001,0.29999999999999999,0.80000000000000004,1
16:51:51.007,0.91010743379592896,0.10538086295127869,-10.011181831359863,-0.0018642127979546785,0.00079894834198057652,0.0034621094819158316,-0.007478062529116869,0.054839435964822769,0.11753235012292862,0.0,1.2188385725021362,0.49096417427062988,0.052697151899337769,0.42724713683128357,0.87282085418701172,0.72899323701858521,0.0,0.0,0.0,0.0,0.025000000000000001,0.040000000000000001,0.14000000000000001,0.29999999999999999,0.80000000000000004,1
16:51:51.053,0.91010743379592896,0.10538086295127869,-10.011181831359863,-0.0018642127979546785,0.00079894834198057652,0.0034621094819158316,-0.007478062529116869,0.054839435964822769,0.11753235012292862,0.0,1.2188385725021362,0.49096417427062988,0.052697151899337769,0.42724713683128357,0.87282085418701172,0.72899323701858521,0.0,0.0,0.0,0.0,0.025000000000000001,0.040000000000000001,0.14000000000000001,0.29999999999999999,0.80000000000000004,1
16:51:51.101,0.91010743379592896,0.10538086295127869,-10.011181831359863,-0.0018642127979546785,0.00079894834198057652,0.0034621094819158316,-0.007478062529116869,0.054839435964822769,0.11753235012292862,0.0,1.2188385725021362,0.49096417427062988,0.052697151899337769,0.42724713683128357,0.87282085418701172,0.72899323701858521,0.0,0.0,0.0,0.0,0.025000000000000001,0.040000000000000001,0.14000000000000001,0.29999999999999999,0.80000000000000004,1
16:51:51.158,0.91010743379592896,0.10538086295127869,-10.011181831359863,-0.0018642127979546785,0.00079894834198057652,0.0034621094819158316,-0.007478062529116869,0.054839435964822769,0.11753235012292862,0.0,1.2188385725021362,0.49096417427062988,0.052697151899337769,0.42724713683128357,0.87282085418701172,0.72899323701858521,0.0,0.0,0.0,0.0,0.025000000000000001,0.040000000000000001,0.14000000000000001,0.29999999999999999,0.80000000000000004,1
16:51:51.242,0.91010743379592896,0.10538086295127869,-10.011181831359863,-0.0018642127979546785,0.00079894834198057652,0.0034621094819158316,-0.007478062529116869,0.054839435964822769,0.11753235012292862,0.0,1.2188385725021362,0.49096417427062988,0.052697151899337769,0.42724713683128357,0.87282085418701172,0.72899323701858521,0.0,0.0,0.0,0.0,0.025000000000000001,0.040000000000000001,0.14000000000000001,0.29999999999999999,0.80000000000000004,1
16:51:51.272,0.91968750953674316,0.076640628278255463,-10.02076244354248,-0.00079894834198057652,-0.0013315805699676275,0.001065264455974102,-0.007478062529116869,0.054839435964822769,0.11753235012292862,0.0,1.2188385725021362,0.49235394597053528,0.052071414887905121,0.42724713683128357,0.86651617288589478,0.72899323701858521,0.0,0.0,0.0,0.0,0.025000000000000001,0.040000000000000001,0.14000000000000001,0.29999999999999999,0.80000000000000004,1
16:51:51.313,0.91968750953674316,0.076640628278255463,-10.02076244354248,-0.00079894834198057652,-0.0013315805699676275,0.001065264455974102,-0.0076697510667145252,0.054839435964822769,0.11753235012292862,0.0,1.2188385725021362,0.49235394597053528,0.052071414887905121,0.42347902059555054,0.86651617288589478,0.72899323701858521,0.0,0.0,0.0,0.0,0.025000000000000001,0.040000000000000001,0.14000000000000001,0.29999999999999999,0.80000000000000004,1
16:51:51.363,0.91968750953674316,0.076640628278255463,-10.02076244354248,-0.00079894834198057652,-0.0013315805699676275,0.001065264455974102,-0.0076697510667145252,0.054839435964822769,0.11753235012292862,0.0,1.2188385725021362,0.49235394597053528,0.052071414887905121,0.42347902059555054,0.86651617288589478,0.72899323701858521,0.0,0.0,0.0,0.0,0.025000000000000001,0.040000000000000001,0.14000000000000001,0.29999999999999999,0.80000000000000004,1
16:51:51.418,0.91968750953674316,0.076640628278255463,-10.02076244354248,-0.00079894834198057652,-0.0013315805699676275,0.001065264455974102,-0.0076697510667145252,0.054839435964822769,0.11753235012292862,0.0,1.2188385725021362,0.49235394597053528,0.052071414887905121,0.42347902059555054,0.86651617288589478,0.72899323701858521,0.0,0.0,0.0,0.0,0.025000000000000001,0.040000000000000001,0.14000000000000001,0.29999999999999999,0.80000000000000004,1
16:51:51.464,0.91968750953674316,0.076640628278255463,-10.02076244354248,-0.00079894834198057652,-0.0013315805699676275,0.001065264455974102,-0.0076697510667145252,0.054839435964822769,0.11753235012292862,0.0,1.2188385725021362,0.49235394597053528,0.052071414887905121,0.42347902059555054,0.86651617288589478,0.72899323701858521,0.0,0.0,0.0,0.0,0.025000000000000001,0.040000000000000001,0.14000000000000001,0.29999999999999999,0.80000000000000004,1
16:51:51.512,0.91968750953674316,0.076640628278255463,-10.02076244354248,-0.00079894834198057652,-0.0013315805699676275,0.001065264455974102,-0.0076697510667145252,0.054839435964822769,0.11753235012292862,0.0,1.2188385725021362,0.49235394597053528,0.052071414887905121,0.42347902059555054,0.86651617288589478,0.72899323701858521,0.0,0.0,0.0,0.0,0.025000000000000001,0.040000000000000001,0.14000000000000001,0.29999999999999999,0.80000000000000004,1
16:51:51.596,0.91968750953674316,0.076640628278255463,-10.02076244354248,-0.00079894834198057652,-0.0013315805699676275,0.001065264455974102,-0.0076697510667145252,0.054456058889627457,0.11753235012292862,0.0,1.2188385725021362,0.49096417427062988,0.051037274301052094,0.42347902059555054,0.86651617288589478,0.72899323701858521,0.0,0.0,0.0,0.0,0.025000000000000001,0.040000000000000001,0.14000000000000001,0.29999999999999999,0.80000000000000004,1
16:51:51.624,0.89094728231430054,0.076640628278255463,-10.001602172851562,0.0013315805699676275,-0.00079894834198057652,-0.00053263222798705101,-0.007478062529116869,0.054456058889627457,0.11660692095756531,0.0,1.2188385725021362,0.49096417427062988,0.051037274301052094,0.42160594463348389,0.86339348554611206,0.72899323701858521,0.0,0.0,0.0,0.0,0.025000000000000001,0.040000000000000001,0.14000000000000001,0.29999999999999999,0.80000000000000004,1
16:51:51.669,0.89094728231430054,0.076640628278255463,-10.001602172851562,0.0013315805699676275,-0.00079894834198057652,-0.00053263222798705101,-0.007478062529116869,0.054456058889627457,0.11660692095756531,0.0,1.2188385725021362,0.49096417427062988,0.051037274301052094,0.42160594463348389,0.86339348554611206,0.72899323701858521,0.0,0.0,0.0,0.0,0.025000000000000001,0.040000000000000001,0.14000000000000001,0.29999999999999999,0.80000000000000004,1
16:51:51.721,0.89094728231430054,0.076640628278255463,-10.001602172851562,0.0013315805699676275,-0.00079894834198057652,-0.00053263222798705101,-0.007478062529116869,0.054456058889627457,0.11660692095756531,0.0,1.2188385725021362,0.49096417427062988,0.051037274301052094,0.42160594463348389,0.86339348554611206,0.72899323701858521,0.0,0.0,0.0,0.0,0.025000000000000001,0.040000000000000001,0.14000000000000001,0.29999999999999999,0.80000000000000004,1
16:51:51.763,0.89094728231430054,0.076640628278255463,-10.001602172851562,0.0013315805699676275,-0.00079894834198057652,-0.00053263222798705101,-0.007478062529116869,0.054456058889627457,0.11660692095756531,0.0,1.2188385725021362,0.49096417427062988,0.051037274301052094,0.42160594463348389,0.86339348554611206,0.72899323701858521,0.0,0.0,0.0,0.0,0.025000000000000001,0.040000000000000001,0.14000000000000001,0.29999999999999999,0.80000000000000004,1
16:51:51.817,0.89094728231430054,0.076640628278255463,-10.001602172851562,0.0013315805699676275,-0.00079894834198057652,-0.00053263222798705101,-0.007478062529116869,0.054456058889627457,0.11660692095756531,0.0,1.2188385725021362,0.49096417427062988,0.051037274301052094,0.42160594463348389,0.86339348554611206,0.72899323701858521,0.0,0.0,0.0,0.0,0.025000000000000001,0.040000000000000001,0.14000000000000001,0.29999999999999999,0.80000000000000004,1
16:51:51.867,0.89094728231430054,0.076640628278255463,-10.001602172851562,0.0013315805699676275,-0.00079894834198057652,-0.00053263222798705101,-0.007478062529116869,0.054456058889627457,0.11660692095756531,0.0,1.2188385725021362,0.49096417427062988,0.051037274301052094,0.42160594463348389,0.86339348554611206,0.72899323701858521,0.0,0.0,0.0,0.0,0.025000000000000001,0.040000000000000001,0.14000000000000001,0.29999999999999999,0.80000000000000004,1
16:51:51.935,0.89094728231430054,0.076640628278255463,-10.001602172851562,-0.00053263222798705101,0.042876895517110825,0.0063915867358446121,-0.007478062529116869,0.055031124502420425,0.11660692095756531,0.0,1.2188385725021362,0.46184834837913513,0.062356304377317429,0.42160594463348389,0.82738769054412842,0.72899323701858521,0.0,0.0,0.0,0.0,0.025000000000000001,0.040000000000000001,0.14000000000000001,0.29999999999999999,0.80000000000000004,1
16:51:51.968,0.96758794784545898,0.0,-10.001602172851562,-0.00053263222798705101,0.042876895517110825,0.0063915867358446121,-0.0059440773911774158,0.055031124502420425,0.13102260231971741,0.0,1.133857250213623,0.46184834837913513,0.062356304377317429,0.46660637855529785,0.82738769054412842,0.67200499773025513,0.0,0.0,0.0,0.0,0.025000000000000001,0.040000000000000001,0.14000000000000001,0.29999999999999999,0.80000000000000004,1
16:51:52.024,0.96758794784545898,0.0,-10.001602172851562,-0.00053263222798705101,0.042876895517110825,0.0063915867358446121,-0.0059440773911774158,0.055031124502420425,0.13102260231971741,0.0,1.133857250213623,0.46184834837913513,0.062356304377317429,0.46660637855529785,0.82738769054412842,0.67200499773025513,0.0,0.0,0.0,0.0,0.025000000000000001,0.040000000000000001,0.14000000000000001,0.29999999999999999,0.80000000000000004,1
16:51:52.076,0.96758794784545898,0.0,-10.001602172851562,-0.00053263222798705101,0.042876895517110825,0.0063915867358446121,-0.0059440773911774158,0.055031124502420425,0.13102260231971741,0.0,1.133857250213623,0.46184834837913513,0.062356304377317429,0.46660637855529785,0.82738769054412842,0.67200499773025513,0.0,0.0,0.0,0.0,0.025000000000000001,0.040000000000000001,0.14000000000000001,0.29999999999999999,0.80000000000000004,1
16:51:52.123,0.96758794784545898,0.0,-10.001602172851562,-0.00053263222798705101,0.042876895517110825,0.0063915867358446121,-0.0059440773911774158,0.055031124502420425,0.13102260231971741,0.0,1.133857250213623,0.46184834837913513,0.062356304377317429,0.46660637855529785,0.82738769054412842,0.67200499773025513,0.0,0.0,0.0,0.0,0.025000000000000001,0.040000000000000001,0.14000000000000001,0.29999999999999999,0.80000000000000004,1
16:51:52.174,0.96758794784545898,0.0,-10.001602172851562,-0.00053263222798705101,0.042876895517110825,0.0063915867358446121,-0.0059440773911774158,0.055031124502420425,0.13102260231971741,0.0,1.133857250213623,0.46184834837913513,0.062356304377317429,0.46660637855529785,0.82738769054412842,0.67200499773025513,0.0,0.0,0.0,0.0,0.025000000000000001,0.040000000000000001,0.14000000000000001,0.29999999999999999,0.80000000000000004,1
16:51:52.273,0.96758794784545898,0.0,-10.001602172851562,-0.007190534844994545,0.019973708316683769,0.0066579030826687813,-0.0059440773911774158,0.057907406240701675,0.13404947519302368,0.0,1.133857250213623,0.46311399340629578,0.058958590030670166,0.46660637855529785,0.83320677280426025,0.67200499773025513,0.0,0.0,0.0,0.0,0.025000000000000001,0.040000000000000001,0.14000000000000001,0.29999999999999999,0.80000000000000004,1
16:51:52.301,0.95800787210464478,0.076640628278255463,-10.001602172851562,-0.007190534844994545,0.019973708316683769,0.0066579030826687813,-0.0067108315415680408,0.057907406240701675,0.13404947519302368,0.0,1.133857250213623,0.46311399340629578,0.058958590030670166,0.45848158001899719,0.83320677280426025,0.66980361938476562,0.0,0.0,0.0,0.0,0.025000000000000001,0.040000000000000001,0.14000000000000001,0.29999999999999999,0.80000000000000004,1
16:51:52.352,0.95800787210464478,0.076640628278255463,-10.001602172851562,-0.007190534844994545,0.019973708316683769,0.0066579030826687813,-0.0067108315415680408,0.057907406240701675,0.13404947519302368,0.0,1.133857250213623,0.46311399340629578,0.058958590030670166,0.45848158001899719,0.83320677280426025,0.66980361938476562,0.0,0.0,0.0,0.0,0.025000000000000001,0.040000000000000001,0.14000000000000001,0.29999999999999999,0.80000000000000004,1
16:51:52.396,0.95800787210464478,0.076640628278255463,-10.001602172851562,-0.007190534844994545,0.019973708316683769,0.0066579030826687813,-0.0067108315415680408,0.057907406240701675,0.13404947519302368,0.0,1.133857250213623,0.46311399340629578,0.058958590030670166,0.45848158001899719,0.83320677280426025,0.66980361938476562,0.0,0.0,0.0,0.0,0.025000000000000001,0.040000000000000001,0.14000000000000001,0.29999999999999999,0.80000000000000004,1
16:51:52.449,0.95800787210464478,0.076640628278255463,-10.001602172851562,-0.007190534844994545,0.019973708316683769,0.0066579030826687813,-0.0067108315415680408,0.057907406240701675,0.13404947519302368,0.0,1.133857250213623,0.46311399340629578,0.058958590030670166,0.45848158001899719,0.83320677280426025,0.66980361938476562,0.0,0.0,0.0,0.0,0.025000000000000001,0.040000000000000001,0.14000000000000001,0.29999999999999999,0.80000000000000004,1
16:51:52.499,0.95800787210464478,0.076640628278255463,-10.001602172851562,-0.007190534844994545,0.019973708316683769,0.0066579030826687813,-0.0067108315415680408,0.057907406240701675,0.13404947519302368,0.0,1.133857250213623,0.46311399340629578,0.058958590030670166,0.45848158001899719,0.83320677280426025,0.66980361938476562,0.0,0.0,0.0,0.0,0.025000000000000001,0.040000000000000001,0.14000000000000001,0.29999999999999999,0.80000000000000004,1
16:51:52.565,0.95800787210464478,0.076640628278255463,-10.001602172851562,-0.007190534844994545,0.019973708316683769,0.0066579030826687813,-0.0067108315415680408,0.057907406240701675,0.13404947519302368,0.0,1.133857250213623,0.46311399340629578,0.058958590030670166,0.45848158001899719,0.83320677280426025,0.66980361938476562,0.0,0.0,0.0,0.0,0.025000000000000001,0.040000000000000001,0.14000000000000001,0.29999999999999999,0.80000000000000004,1
16:51:52.615,0.95800787210464478,0.076640628278255463,-10.001602172851562,-0.0042610578238964081,0.016777915880084038,0.0050600059330463409,-0.0067108315415680408,0.059249702841043472,0.13404947519302368,0.0093788038939237595,1.0444033145904541,0.44826483726501465,0.06328166276216507,0.45848158001899719,0.84806793928146362,0.66980361938476562,0.0,0.0,0.0,0.0,0.025000000000000001,0.040000000000000001,0.14000000000000001,0.29999999999999999,0.80000000000000004,1
16:51:52.648,1.0538086891174316,0.14370118081569672,-10.030342102050781,-0.0042610578238964081,0.016777915880084038,0.0050600059330463409,-0.0078614391386508942,0.059249702841043472,0.13455888628959656,0.0093788038939237595,1.0444033145904541,0.44826483726501465,0.06328166276216507,0.49394506216049194,0.84806793928146362,0.69946295022964478,0.0,0.0,0.0,0.0,0.025000000000000001,0.040000000000000001,0.14000000000000001,0.29999999999999999,0.80000000000000004,1
16:51:52.699,1.0538086891174316,0.14370118081569672,-10.030342102050781,-0.0042610578238964081,0.016777915880084038,0.0050600059330463409,-0.0078614391386508942,0.059249702841043472,0.13455888628959656,0.0093788038939237595,1.0444033145904541,0.44826483726501465,0.06328166276216507,0.49394506216049194,0.84806793928146362,0.69946295022964478,0.0,0.0,0.0,0.0,0.025000000000000001,0.040000000000000001,0.14000000000000001,0.29999999999999999,0.80000000000000004,1
16:51:52.748,1.0538086891174316,0.14370118081569672,-10.030342102050781,-0.0042610578238964081,0.016777915880084038,0.0050600059330463409,-0.0078614391386508942,0.059249702841043472,0.13455888628959656,0.0093788038939237595,1.0444033145904541,0.44826483726501465,0.06328166276216507,0.49394506216049194,0.84806793928146362,0.69946295022964478,0.0,0.0,0.0,0.0,0.025000000000000001,0.040000000000000001,0.14000000000000001,0.29999999999999999,0.80000000000000004,1
16:51:52.803,1.0538086891174316,0.14370118081569672,-10.030342102050781,-0.0042610578238964081,0.016777915880084038,0.0050600059330463409,-0.0078614391386508942,0.059249702841043472,0.13455888628959656,0.0093788038939237595,1.0444033145904541,0.44826483726501465,0.06328166276216507,0.49394506216049194,0.84806793928146362,0.69946295022964478,0.0,0.0,0.0,0.0,0.025000000000000001,0.040000000000000001,0.14000000000000001,0.29999999999999999,0.80000000000000004,1
16:51:52.848,1.0538086891174316,0.14370118081569672,-10.030342102050781,-0.0042610578238964081,0.016777915880084038,0.0050600059330463409,-0.0078614391386508942,0.059249702841043472,0.13455888628959656,0.0093788038939237595,1.0444033145904541,0.44826483726501465,0.06328166276216507,0.49394506216049194,0.84806793928146362,0.69946295022964478,0.0,0.0,0.0,0.0,0.025000000000000001,0.040000000000000001,0.14000000000000001,0.29999999999999999,0.80000000000000004,1
16:51:52.928,1.0538086891174316,0.14370118081569672,-10.030342102050781,-0.0042610578238964081,0.016777915880084038,0.0050600059330463409,-0.0078614391386508942,0.059249702841043472,0.13455888628959656,0.0093788038939237595,1.0444033145904541,0.44826483726501465,0.06328166276216507,0.49394506216049194,0.84806793928146362,0.69946295022964478,0.0,0.0,0.0,0.0,0.025000000000000001,0.040000000000000001,0.14000000000000001,0.29999999999999999,0.80000000000000004,1
16:51:52.956,1.0538086891174316,0.067060552537441254,-10.030342102050781,0.0013315805699676275,0.011185277253389359,-0.0042610578238964081,-0.0078614391386508942,0.057715717703104019,0.12657466530799866,0.0,1.1551557779312134,0.48275086283683777,0.051037274301052094,0.49394506216049194,0.87600308656692505,0.69946295022964478,0.0,0.0,0.0,0.0,0.025000000000000001,0.040000000000000001,0.14000000000000001,0.29999999999999999,0.80000000000000004,1
16:51:52.998,0.93884772062301636,0.067060552537441254,-9.9728612899780273,0.0013315805699676275,0.011185277253389359,-0.0042610578238964081,-0.0080531276762485504,0.057715717703104019,0.12657466530799866,0.0,1.1551557779312134,0.48275086283683777,0.051037274301052094,0.42914220690727234,0.87600308656692505,0.72899323701858521,0.0,0.0,0.0,0.0,0.025000000000000001,0.040000000000000001,0.14000000000000001,0.29999999999999999,0.80000000000000004,1
16:51:53.055,0.93884772062301636,0.067060552537441254,-9.9728612899780273,0.0013315805699676275,0.011185277253389359,-0.0042610578238964081,-0.0080531276762485504,0.057715717703104019,0.12657466530799866,0.0,1.1551557779312134,0.48275086283683777,0.051037274301052094,0.42914220690727234,0.87600308656692505,0.72899323701858521,0.0,0.0,0.0,0.0,0.025000000000000001,0.040000000000000001,0.14000000000000001,0.29999999999999999,0.80000000000000004,1
16:51:53.101,0.93884772062301636,0.067060552537441254,-9.9728612899780273,0.0013315805699676275,0.011185277253389359,-0.0042610578238964081,-0.0080531276762485504,0.057715717703104019,0.12657466530799866,0.0,1.1551557779312134,0.48275086283683777,0.051037274301052094,0.42914220690727234,0.87600308656692505,0.72899323701858521,0.0,0.0,0.0,0.0,0.025000000000000001,0.040000000000000001,0.14000000000000001,0.29999999999999999,0.80000000000000004,1
16:51:53.159,0.93884772062301636,0.067060552537441254,-9.9728612899780273,0.0013315805699676275,0.011185277253389359,-0.0042610578238964081,-0.0080531276762485504,0.057715717703104019,0.12657466530799866,0.0,1.1551557779312134,0.48275086283683777,0.051037274301052094,0.42914220690727234,0.87600308656692505,0.72899323701858521,0.0,0.0,0.0,0.0,0.025000000000000001,0.040000000000000001,0.14000000000000001,0.29999999999999999,0.80000000000000004,1
16:51:53.199,0.93884772062301636,0.067060552537441254,-9.9728612899780273,0.0013315805699676275,0.011185277253389359,-0.0042610578238964081,-0.0080531276762485504,0.057715717703104019,0.12657466530799866,0.0,1.1551557779312134,0.48275086283683777,0.051037274301052094,0.42914220690727234,0.87600308656692505,0.72899323701858521,0.0,0.0,0.0,0.0,0.025000000000000001,0.040000000000000001,0.14000000000000001,0.29999999999999999,0.80000000000000004,1
16:51:53.300,0.93884772062301636,0.067060552537441254,-9.9728612899780273,0.00053263222798705101,0.020506341010332108,0.00079894834198057652,-0.0080531276762485504,0.05714065209031105,0.12657466530799866,0.0,1.1551557779312134,0.4695221483707428,0.049810640513896942,0.42914220690727234,0.88242834806442261,0.72899323701858521,0.0,0.0,0.0,0.0,0.025000000000000001,0.040000000000000001,0.14000000000000001,0.29999999999999999,0.80000000000000004,1
16:51:53.324,0.82388675212860107,0.14370118081569672,-9.9728612899780273,0.00053263222798705101,0.020506341010332108,0.00079894834198057652,-0.0076697510667145252,0.05714065209031105,0.11477057635784149,0.0,1.1255359649658203,0.4695221483707428,0.049810640513896942,0.41788133978843689,0.88242834806442261,0.73413306474685669,0.0,0.0,0.0,0.0,0.025000000000000001,0.040000000000000001,0.14000000000000001,0.29999999999999999,0.80000000000000004,1
16:51:53.375,0.82388675212860107,0.14370118081569672,-9.9728612899780273,0.00053263222798705101,0.020506341010332108,0.00079894834198057652,-0.0076697510667145252,0.05714065209031105,0.11477057635784149,0.0,1.1255359649658203,0.4695221483707428,0.049810640513896942,0.41788133978843689,0.88242834806442261,0.73413306474685669,0.0,0.0,0.0,0.0,0.025000000000000001,0.040000000000000001,0.14000000000000001,0.29999999999999999,0.80000000000000004,1
16:51:53.419,0.82388675212860107,0.14370118081569672,-9.9728612899780273,0.00053263222798705101,0.020506341010332108,0.00079894834198057652,-0.0076697510667145252,0.05714065209031105,0.11477057635784149,0.0,1.1255359649658203,0.4695221483707428,0.049810640513896942,0.41788133978843689,0.88242834806442261,0.73413306474685669,0.0,0.0,0.0,0.0,0.025000000000000001,0.040000000000000001,0.14000000000000001,0.29999999999999999,0.80000000000000004,1
16:51:53.472,0.82388675212860107,0.14370118081569672,-9.9728612899780273,0.00053263222798705101,0.020506341010332108,0.00079894834198057652,-0.0076697510667145252,0.05714065209031105,0.11477057635784149,0.0,1.1255359649658203,0.4695221483707428,0.049810640513896942,0.41788133978843689,0.88242834806442261,0.73413306474685669,0.0,0.0,0.0,0.0,0.025000000000000001,0.040000000000000001,0.14000000000000001,0.29999999999999999,0.80000000000000004,1
16:51:53.525,0.82388675212860107,0.14370118081569672,-9.9728612899780273,0.00053263222798705101,0.020506341010332108,0.00079894834198057652,-0.0076697510667145252,0.05714065209031105,0.11477057635784149,0.0,1.1255359649658203,0.4695221483707428,0.049810640513896942,0.41788133978843689,0.88242834806442261,0.73413306474685669,0.0,0.0,0.0,0.0,0.025000000000000001,0.040000000000000001,0.14000000000000001,0.29999999999999999,0.80000000000000004,1
16:51:53.607,0.82388675212860107,0.14370118081569672,-9.9728612899780273,0.00053263222798705101,0.020506341010332108,0.00079894834198057652,-0.0076697510667145252,0.05714065209031105,0.11477057635784149,0.0,1.1255359649658203,0.4695221483707428,0.049810640513896942,0.41788133978843689,0.88242834806442261,0.73413306474685669,0.0,0.0,0.0,0.0,0.025000000000000001,0.040000000000000001,0.14000000000000001,0.29999999999999999,0.80000000000000004,1
16:51:53.630,0.60354495048522949,0.13412110507488251,-10.001602172851562,-0.0090547483414411545,0.055926382541656494,0.007190534844994545,-0.0076697510667145252,0.048320118337869644,0.11477057635784149,0.0,1.2333222627639771,0.48410505056381226,0.038703043013811111,0.34263533353805542,0.88242834806442261,0.73413306474685669,0.0,0.0,0.0,0.0,0.025000000000000001,0.040000000000000001,0.14000000000000001,0.29999999999999999,0.80000000000000004,1
16:51:53.678,0.60354495048522949,0.13412110507488251,-10.001602172851562,-0.0090547483414411545,0.055926382541656494,0.007190534844994545,-0.0070946854539215565,0.048320118337869644,0.11477057635784149,0.0,1.2333222627639771,0.48410505056381226,0.038703043013811111,0.34263533353805542,0.88242834806442261,0.73413306474685669,0.0,0.0,0.0,0.0,0.025000000000000001,0.040000000000000001,0.14000000000000001,0.29999999999999999,0.80000000000000004,1
16:51:53.727,0.60354495048522949,0.13412110507488251,-10.001602172851562,-0.0090547483414411545,0.055926382541656494,0.007190534844994545,-0.0070946854539215565,0.048320118337869644,0.11477057635784149,0.0,1.2333222627639771,0.48410505056381226,0.038703043013811111,0.34263533353805542,0.88242834806442261,0.73413306474685669,0.0,0.0,0.0,0.0,0.025000000000000001,0.040000000000000001,0.14000000000000001,0.29999999999999999,0.80000000000000004,1
16:51:53.776,0.60354495048522949,0.13412110507488251,-10.001602172851562,-0.0090547483414411545,0.055926382541656494,0.007190534844994545,-0.0070946854539215565,0.048320118337869644,0.11477057635784149,0.0,1.2333222627639771,0.48410505056381226,0.038703043013811111,0.34263533353805542,0.88242834806442261,0.73413306474685669,0.0,0.0,0.0,0.0,0.025000000000000001,0.040000000000000001,0.14000000000000001,0.29999999999999999,0.80000000000000004,1
16:51:53.828,0.60354495048522949,0.13412110507488251,-10.001602172851562,-0.0090547483414411545,0.055926382541656494,0.007190534844994545,-0.0070946854539215565,0.048320118337869644,0.11477057635784149,0.0,1.2333222627639771,0.48410505056381226,0.038703043013811111,0.34263533353805542,0.88242834806442261,0.73413306474685669,0.0,0.0,0.0,0.0,0.025000000000000001,0.040000000000000001,0.14000000000000001,0.29999999999999999,0.80000000000000004,1
16:51:53.878,0.60354495048522949,0.13412110507488251,-10.001602172851562,-0.0090547483414411545,0.055926382541656494,0.007190534844994545,-0.0070946854539215565,0.048320118337869644,0.11477057635784149,0.0,1.2333222627639771,0.48410505056381226,0.038703043013811111,0.34263533353805542,0.88242834806442261,0.73413306474685669,0.0,0.0,0.0,0.0,0.025000000000000001,0.040000000000000001,0.14000000000000001,0.29999999999999999,0.80000000000000004,1
16:51:53.964,0.60354495048522949,0.13412110507488251,-10.001602172851562,-0.0098536964505910873,-0.085221156477928162,-0.0063915867358446121,-0.0070946854539215565,0.084944076836109161,0.11477057635784149,0.022803941741585732,1.2188385725021362,0.43527436256408691,0.022572673857212067,0.34263533353805542,0.84806793928146362,0.73413306474685669,0.0,0.0,0.0,0.0,0.025000000000000001,0.040000000000000001,0.14000000000000001,0.29999999999999999,0.80000000000000004,1
16:51:53.986,1.207089900970459,0.22992187738418579,-9.9728612899780273,-0.0098536964505910873,-0.085221156477928162,-0.0063915867358446121,-0.0088203586637973785,0.084944076836109161,0.16552920639514923,0.022803941741585732,1.2188385725021362,0.43527436256408691,0.022572673857212067,0.353809654712677,0.84806793928146362,0.37805747985839844,0.0,0.0,0.0,0.0,0.025000000000000001,0.040000000000000001,0.14000000000000001,0.29999999999999999,0.80000000000000004,1
16:51:54.038,1.207089900970459,0.22992187738418579,-9.9728612899780273,-0.0098536964505910873,-0.085221156477928162,-0.0063915867358446121,-0.0088203586637973785,0.084944076836109161,0.16552920639514923,0.022803941741585732,1.2188385725021362,0.43527436256408691,0.022572673857212067,0.353809654712677,0.84806793928146362,0.37805747985839844,0.0,0.0,0.0,0.0,0.025000000000000001,0.040000000000000001,0.14000000000000001,0.29999999999999999,0.80000000000000004,1
16:51:54.083,1.207089900970459,0.22992187738418579,-9.9728612899780273,-0.0098536964505910873,-0.085221156477928162,-0.0063915867358446121,-0.0088203586637973785,0.084944076836109161,0.16552920639514923,0.022803941741585732,1.2188385725021362,0.43527436256408691,0.022572673857212067,0.353809654712677,0.84806793928146362,0.37805747985839844,0.0,0.0,0.0,0.0,0.025000000000000001,0.040000000000000001,0.14000000000000001,0.29999999999999999,0.80000000000000004,1
16:51:54.135,1.207089900970459,0.22992187738418579,-9.9728612899780273,-0.0098536964505910873,-0.085221156477928162,-0.0063915867358446121,-0.0088203586637973785,0.084944076836109161,0.16552920639514923,0.022803941741585732,1.2188385725021362,0.43527436256408691,0.022572673857212067,0.353809654712677,0.84806793928146362,0.37805747985839844,0.0,0.0,0.0,0.0,0.025000000000000001,0.040000000000000001,0.14000000000000001,0.29999999999999999,0.80000000000000004,1
16:51:54.187,1.207089900970459,0.22992187738418579,-9.9728612899780273,-0.0098536964505910873,-0.085221156477928162,-0.0063915867358446121,-0.0088203586637973785,0.084944076836109161,0.16552920639514923,0.022803941741585732,1.2188385725021362,0.43527436256408691,0.022572673857212067,0.353809654712677,0.84806793928146362,0.37805747985839844,0.0,0.0,0.0,0.0,0.025000000000000001,0.040000000000000001,0.14000000000000001,0.29999999999999999,0.80000000000000004,1
16:51:54.270,1.207089900970459,0.22992187738418579,-9.9728612899780273,-0.0098536964505910873,-0.085221156477928162,-0.0063915867358446121,-0.0088203586637973785,0.084944076836109161,0.16552920639514923,0.022803941741585732,1.2188385725021362,0.43527436256408691,0.022572673857212067,0.353809654712677,0.84806793928146362,0.37805747985839844,0.0,0.0,0.0,0.0,0.025000000000000001,0.040000000000000001,0.14000000000000001,0.29999999999999999,0.80000000000000004,1
16:51:54.309,1.0346485376358032,0.19160157442092896,-9.9728612899780273,0.0042610578238964081,0.0039947414770722389,0.0039947414770722389,-0.0088203586637973785,0.061934296041727066,0.13455888628959656,0.0029670160729438066,1.1296827793121338,0.49515172839164734,0.029123203828930855,0.353809654712677,0.90896940231323242,0.66980361938476562,0.0,0.0,0.0,0.0,0.025000000000000001,0.040000000000000001,0.14000000000000001,0.29999999999999999,0.80000000000000004,1
16:51:54.343,1.0346485376358032,0.19160157442092896,-9.9728612899780273,0.0042610578238964081,0.0039947414770722389,0.0039947414770722389,-0.0086286701261997223,0.061934296041727066,0.13455888628959656,0.0029670160729438066,1.1296827793121338,0.49515172839164734,0.029123203828930855,0.45848158001899719,0.90896940231323242,0.66980361938476562,0.0,0.0,0.0,0.0,0.025000000000000001,0.040000000000000001,0.14000000000000001,0.29999999999999999,0.80000000000000004,1
16:51:54.391,1.0346485376358032,0.19160157442092896,-9.9728612899780273,0.0042610578238964081,0.0039947414770722389,0.0039947414770722389,-0.0086286701261997223,0.061934296041727066,0.13455888628959656,0.0029670160729438066,1.1296827793121338,0.49515172839164734,0.029123203828930855,0.45848158001899719,0.90896940231323242,0.66980361938476562,0.0,0.0,0.0,0.0,0.025000000000000001,0.040000000000000001,0.14000000000000001,0.29999999999999999,0.80000000000000004,1
16:51:54.446,1.0346485376358032,0.19160157442092896,-9.9728612899780273,0.0042610578238964081,0.0039947414770722389,0.0039947414770722389,-0.0086286701261997223,0.061934296041727066,0.13455888628959656,0.0029670160729438066,1.1296827793121338,0.49515172839164734,0.029123203828930855,0.45848158001899719,0.90896940231323242,0.66980361938476562,0.0,0.0,0.0,0.0,0.025000000000000001,0.040000000000000001,0.14000000000000001,0.29999999999999999,0.80000000000000004,1
16:51:54.498,1.0346485376358032,0.19160157442092896,-9.9728612899780273,0.0042610578238964081,0.0039947414770722389,0.0039947414770722389,-0.0086286701261997223,0.061934296041727066,0.13455888628959656,0.0029670160729438066,1.1296827793121338,0.49515172839164734,0.029123203828930855,0.45848158001899719,0.90896940231323242,0.66980361938476562,0.0,0.0,0.0,0.0,0.025000000000000001,0.040000000000000001,0.14000000000000001,0.29999999999999999,0.80000000000000004,1
16:51:54.539,1.0346485376358032,0.19160157442092896,-9.9728612899780273,0.0042610578238964081,0.0039947414770722389,0.0039947414770722389,-0.0086286701261997223,0.061934296041727066,0.13455888628959656,0.0029670160729438066,1.1296827793121338,0.49515172839164734,0.029123203828930855,0.45848158001899719,0.90896940231323242,0.66980361938476562,0.0,0.0,0.0,0.0,0.025000000000000001,0.040000000000000001,0.14000000000000001,0.29999999999999999,0.80000000000000004,1
16:51:54.634,1.0346485376358032,0.19160157442092896,-9.9728612899780273,0.0050600059330463409,-0.0087884319946169853,-0.006125270389020443,-0.0086286701261997223,0.058674637228250504,0.1179969310760498,0.0,1.133857250213623,0.49939459562301636,0.026883188635110855,0.45848158001899719,0.94781374931335449,0.66980361938476562,0.0,0.0,0.0,0.0,0.025000000000000001,0.040000000000000001,0.14000000000000001,0.29999999999999999,0.80000000000000004,1
16:51:54.656,0.86220705509185791,0.067060552537441254,-10.001602172851562,0.0050600059330463409,-0.0087884319946169853,-0.006125270389020443,-0.0080531276762485504,0.058674637228250504,0.1179969310760498,0.0,1.133857250213623,0.49939459562301636,0.026883188635110855,0.45048636198043823,0.94781374931335449,0.74995023012161255,0.0,0.0,0.0,0.0,0.025000000000000001,0.040000000000000001,0.14000000000000001,0.29999999999999999,0.80000000000000004,1
16:51:54.708,0.86220705509185791,0.067060552537441254,-10.001602172851562,0.0050600059330463409,-0.0087884319946169853,-0.006125270389020443,-0.0080531276762485504,0.058674637228250504,0.1179969310760498,0.0,1.133857250213623,0.49939459562301636,0.026883188635110855,0.45048636198043823,0.94781374931335449,0.74995023012161255,0.0,0.0,0.0,0.0,0.025000000000000001,0.040000000000000001,0.14000000000000001,0.29999999999999999,0.80000000000000004,1
16:51:54.764,0.86220705509185791,0.067060552537441254,-10.001602172851562,0.0050600059330463409,-0.0087884319946169853,-0.006125270389020443,-0.0080531276762485504,0.058674637228250504,0.1179969310760498,0.0,1.133857250213623,0.49939459562301636,0.026883188635110855,0.45048636198043823,0.94781374931335449,0.74995023012161255,0.0,0.0,0.0,0.0,0.025000000000000001,0.040000000000000001,0.14000000000000001,0.29999999999999999,0.80000000000000004,1
16:51:54.800,0.86220705509185791,0.067060552537441254,-10.001602172851562,0.0050600059330463409,-0.0087884319946169853,-0.006125270389020443,-0.0080531276762485504,0.058674637228250504,0.1179969310760498,0.0,1.133857250213623,0.49939459562301636,0.026883188635110855,0.45048636198043823,0.94781374931335449,0.74995023012161255,0.0,0.0,0.0,0.0,0.025000000000000001,0.040000000000000001,0.14000000000000001,0.29999999999999999,0.80000000000000004,1
16:51:54.857,0.86220705509185791,0.067060552537441254,-10.001602172851562,0.0050600059330463409,-0.0087884319946169853,-0.006125270389020443,-0.0080531276762485504,0.058674637228250504,0.1179969310760498,0.0,1.133857250213623,0.49939459562301636,0.026883188635110855,0.45048636198043823,0.94781374931335449,0.74995023012161255,0.0,0.0,0.0,0.0,0.025000000000000001,0.040000000000000001,0.14000000000000001,0.29999999999999999,0.80000000000000004,1
16:51:54.941,0.86220705509185791,0.067060552537441254,-10.001602172851562,0.0050600059330463409,-0.0087884319946169853,-0.006125270389020443,-0.0080531276762485504,0.058674637228250504,0.1179969310760498,0.0,1.133857250213623,0.49939459562301636,0.026883188635110855,0.45048636198043823,0.94781374931335449,0.74995023012161255,0.0,0.0,0.0,0.0,0.025000000000000001,0.040000000000000001,0.14000000000000001,0.29999999999999999,0.80000000000000004,1
16:51:54.978,0.86220705509185791,0.067060552537441254,-10.001602172851562,0.015712650492787361,0.12197277694940567,-0.18349179625511169,-0.0080531276762485504,0.05714065209031105,0.17853169143199921,0.076037384569644928,0.71362245082855225,0.25780001282691956,0.010337088257074356,0.45048636198043823,0.82163828611373901,0.74995023012161255,0.0,0.0,0.0,0.0,0.025000000000000001,0.040000000000000001,0.14000000000000001,0.29999999999999999,0.80000000000000004,1
16:51:55.012,0.45984375476837158,0.067060552537441254,-9.9249610900878906,0.015712650492787361,0.12197277694940567,-0.18349179625511169,-0.0069025200791656971,0.05714065209031105,0.17853169143199921,0.076037384569644928,0.71362245082855225,0.25780001282691956,0.010337088257074356,0.38387882709503174,0.82163828611373901,0.23338392376899719,0.0,0.0,0.0,0.0,0.025000000000000001,0.040000000000000001,0.14000000000000001,0.29999999999999999,0.80000000000000004,1
16:51:55.063,0.45984375476837158,0.067060552537441254,-9.9249610900878906,0.015712650492787361,0.12197277694940567,-0.18349179625511169,-0.0069025200791656971,0.05714065209031105,0.17853169143199921,0.076037384569644928,0.71362245082855225,0.25780001282691956,0.010337088257074356,0.38387882709503174,0.82163828611373901,0.23338392376899719,0.0,0.0,0.0,0.0,0.025000000000000001,0.040000000000000001,0.14000000000000001,0.29999999999999999,0.80000000000000004,1
16:51:55.112,0.45984375476837158,0.067060552537441254,-9.9249610900878906,0.015712650492787361,0.12197277694940567,-0.18349179625511169,-0.0069025200791656971,0.05714065209031105,0.17853169143199921,0.076037384569644928,0.71362245082855225,0.25780001282691956,0.010337088257074356,0.38387882709503174,0.82163828611373901,0.23338392376899719,0.0,0.0,0.0,0.0,0.025000000000000001,0.040000000000000001,0.14000000000000001,0.29999999999999999,0.80000000000000004,1
16:51:55.175,0.45984375476837158,0.067060552537441254,-9.9249610900878906,0.015712650492787361,0.12197277694940567,-0.18349179625511169,-0.0069025200791656971,0.05714065209031105,0.17853169143199921,0.076037384569644928,0.71362245082855225,0.25780001282691956,0.010337088257074356,0.38387882709503174,0.82163828611373901,0.23338392376899719,0.0,0.0,0.0,0.0,0.025000000000000001,0.040000000000000001,0.14000000000000001,0.29999999999999999,0.80000000000000004,1
16:51:55.212,0.45984375476837158,0.067060552537441254,-9.9249610900878906,0.015712650492787361,0.12197277694940567,-0.18349179625511169,-0.0069025200791656971,0.05714065209031105,0.17853169143199921,0.076037384569644928,0.71362245082855225,0.25780001282691956,0.010337088257074356,0.38387882709503174,0.82163828611373901,0.23338392376899719,0.0,0.0,0.0,0.0,0.025000000000000001,0.040000000000000001,0.14000000000000001,0.29999999999999999,0.80000000000000004,1
16:51:55.282,0.45984375476837158,0.067060552537441254,-9.9249610900878906,0.015712650492787361,0.12197277694940567,-0.18349179625511169,-0.0069025200791656971,0.05714065209031105,0.17853169143199921,0.076037384569644928,0.71362245082855225,0.25780001282691956,0.010337088257074356,0.38387882709503174,0.82163828611373901,0.23338392376899719,0.0,0.0,0.0,0.0,0.025000000000000001,0.040000000000000001,0.14000000000000001,0.29999999999999999,0.80000000000000004,1
16:51:55.315,2.184257984161377,-0.77598637342453003,-10.011181831359863,0.43382894992828369,0.17337179183959961,-1.6682041883468628,-0.0069025200791656971,0.15627413988113403,0.046200409531593323,0.46999689936637878,0.0024495774414390326,0.0072580957785248756,0.067067570984363556,0.38387882709503174,0.13354234397411346,0.23338392376899719,0.0,0.0,0.0,0.0,0.025000000000000001,0.040000000000000001,0.14000000000000001,0.29999999999999999,0.80000000000000004,1
16:51:55.363,2.184257984161377,-0.77598637342453003,-10.011181831359863,0.43382894992828369,0.17337179183959961,-1.6682041883468628,0.088970832526683807,0.15627413988113403,0.046200409531593323,0.46999689936637878,0.0024495774414390326,0.0072580957785248756,0.067067570984363556,0.2382981926202774,0.13354234397411346,0.0016912522260099649,0.0,0.0,0.0,0.0,0.025000000000000001,0.040000000000000001,0.14000000000000001,0.29999999999999999,0.80000000000000004,1
16:51:55.410,2.184257984161377,-0.77598637342453003,-10.011181831359863,0.43382894992828369,0.17337179183959961,-1.6682041883468628,0.088970832526683807,0.15627413988113403,0.046200409531593323,0.46999689936637878,0.0024495774414390326,0.0072580957785248756,0.067067570984363556,0.2382981926202774,0.13354234397411346,0.0016912522260099649,0.0,0.0,0.0,0.0,0.025000000000000001,0.040000000000000001,0.14000000000000001,0.29999999999999999,0.80000000000000004,1
16:51:55.461,2.184257984161377,-0.77598637342453003,-10.011181831359863,0.43382894992828369,0.17337179183959961,-1.6682041883468628,0.088970832526683807,0.15627413988113403,0.046200409531593323,0.46999689936637878,0.0024495774414390326,0.0072580957785248756,0.067067570984363556,0.2382981926202774,0.13354234397411346,0.0016912522260099649,0.0,0.0,0.0,0.0,0.025000000000000001,0.040000000000000001,0.14000000000000001,0.29999999999999999,0.80000000000000004,1
16:51:55.513,2.184257984161377,-0.77598637342453003,-10.011181831359863,0.43382894992828369,0.17337179183959961,-1.6682041883468628,0.088970832526683807,0.15627413988113403,0.046200409531593323,0.46999689936637878,0.0024495774414390326,0.0072580957785248756,0.067067570984363556,0.2382981926202774,0.13354234397411346,0.0016912522260099649,0.0,0.0,0.0,0.0,0.025000000000000001,0.040000000000000001,0.14000000000000001,0.29999999999999999,0.80000000000000004,1
16:51:55.563,2.184257984161377,-0.77598637342453003,-10.011181831359863,0.43382894992828369,0.17337179183959961,-1.6682041883468628,0.088970832526683807,0.15627413988113403,0.046200409531593323,0.46999689936637878,0.0024495774414390326,0.0072580957785248756,0.067067570984363556,0.2382981926202774,0.13354234397411346,0.0016912522260099649,0.0,0.0,0.0,0.0,0.025000000000000001,0.040000000000000001,0.14000000000000001,0.29999999999999999,0.80000000000000004,1
16:51:55.636,2.184257984161377,-0.77598637342453003,-10.011181831359863,0.43382894992828369,-0.020240023732185364,-1.6682041883468628,0.088970832526683807,0.24371081590652466,0.046200409531593323,0.46999689936637878,0.0024495774414390326,0.0,0.090638354420661926,0.2382981926202774,0.0,0.0016912522260099649,0.0,0.0,0.0,0.0,0.025000000000000001,0.040000000000000001,0.14000000000000001,0.29999999999999999,0.80000000000000004,1
16:51:55.665,2.9219238758087158,-0.8526269793510437,-9.3980569839477539,0.22690132260322571,-0.020240023732185364,-1.3981596231460571,0.12521141767501831,0.24371081590652466,0.14886701107025146,0.45312848687171936,0.0016732763033360243,0.0,0.090638354420661926,0.0,0.0,0.0021389408502727747,0.0,0.0,0.0,0.0,0.025000000000000001,0.040000000000000001,0.14000000000000001,0.29999999999999999,0.80000000000000004,1
16:51:55.722,2.9219238758087158,-0.8526269793510437,-9.3980569839477539,0.22690132260322571,-0.020240023732185364,-1.3981596231460571,0.12521141767501831,0.24371081590652466,0.14886701107025146,0.45312848687171936,0.0016732763033360243,0.0,0.090638354420661926,0.0,0.0,0.0021389408502727747,0.0,0.0,0.0,0.0,0.025000000000000001,0.040000000000000001,0.14000000000000001,0.29999999999999999,0.80000000000000004,1
16:51:55.769,2.9219238758087158,-0.8526269793510437,-9.3980569839477539,0.22690132260322571,-0.020240023732185364,-1.3981596231460571,0.12521141767501831,0.24371081590652466,0.14886701107025146,0.45312848687171936,0.0016732763033360243,0.0,0.090638354420661926,0.0,0.0,0.0021389408502727747,0.0,0.0,0.0,0.0,0.025000000000000001,0.040000000000000001,0.14000000000000001,0.29999999999999999,0.80000000000000004,1
16:51:55.824,2.9219238758087158,-0.8526269793510437,-9.3980569839477539,0.22690132260322571,-0.020240023732185364,-1.3981596231460571,0.12521141767501831,0.24371081590652466,0.14886701107025146,0.45312848687171936,0.0016732763033360243,0.0,0.090638354420661926,0.0,0.0,0.0021389408502727747,0.0,0.0,0.0,0.0,0.025000000000000001,0.040000000000000001,0.14000000000000001,0.29999999999999999,0.80000000000000004,1
16:51:55.866,2.9219238758087158,-0.8526269793510437,-9.3980569839477539,0.22690132260322571,-0.020240023732185364,-1.3981596231460571,0.12521141767501831,0.24371081590652466,0.14886701107025146,0.45312848687171936,0.0016732763033360243,0.0,0.090638354420661926,0.0,0.0,0.0021389408502727747,0.0,0.0,0.0,0.0,0.025000000000000001,0.040000000000000001,0.14000000000000001,0.29999999999999999,0.80000000000000004,1
16:51:55.952,2.9219238758087158,-0.8526269793510437,-9.3980569839477539,0.22690132260322571,-0.020240023732185364,-1.3981596231460571,0.12521141767501831,0.24371081590652466,0.14886701107025146,0.45312848687171936,0.0016732763033360243,0.0,0.090638354420661926,0.0,0.0,0.0021389408502727747,0.0,0.0,0.0,0.0,0.025000000000000001,0.040000000000000001,0.14000000000000001,0.29999999999999999,0.80000000000000004,1
16:51:55.985,0.59396487474441528,0.27782228589057922,-9.3980569839477539,-0.035952676087617874,-0.96166747808456421,0.47484162449836731,0.12521141767501831,0.13920861482620239,0.33949479460716248,0.20884935557842255,0.32834464311599731,0.97304290533065796,0.024854457005858421,0.0,0.21753187477588654,0.0021389408502727747,0.0,0.0,0.0,0.0,0.025000000000000001,0.040000000000000001,0.14000000000000001,0.29999999999999999,0.80000000000000004,1
16:51:56.024,0.59396487474441528,0.27782228589057922,-10.509346008300781,-0.035952676087617874,-0.96166747808456421,0.47484162449836731,0.070563487708568573,0.13920861482620239,0.33949479460716248,0.20884935557842255,0.32834464311599731,0.97304290533065796,0.024854457005858421,0.0,0.21753187477588654,0.0030773913022130728,0.0,0.0,0.0,0.0,0.025000000000000001,0.040000000000000001,0.14000000000000001,0.29999999999999999,0.80000000000000004,1
16:51:56.074,0.59396487474441528,0.27782228589057922,-10.509346008300781,-0.035952676087617874,-0.96166747808456421,0.47484162449836731,0.070563487708568573,0.13920861482620239,0.33949479460716248,0.20884935557842255,0.32834464311599731,0.97304290533065796,0.024854457005858421,0.0,0.21753187477588654,0.0030773913022130728,0.0,0.0,0.0,0.0,0.025000000000000001,0.040000000000000001,0.14000000000000001,0.29999999999999999,0.80000000000000004,1
16:51:56.124,0.59396487474441528,0.27782228589057922,-10.509346008300781,-0.035952676087617874,-0.96166747808456421,0.47484162449836731,0.070563487708568573,0.13920861482620239,0.33949479460716248,0.20884935557842255,0.32834464311599731,0.97304290533065796,0.024854457005858421,0.0,0.21753187477588654,0.0030773913022130728,0.0,0.0,0.0,0.0,0.025000000000000001,0.040000000000000001,0.14000000000000001,0.29999999999999999,0.80000000000000004,1
16:51:56.189,0.59396487474441528,0.27782228589057922,-10.509346008300781,-0.035952676087617874,-0.96166747808456421,0.47484162449836731,0.070563487708568573,0.13920861482620239,0.33949479460716248,0.20884935557842255,0.32834464311599731,0.97304290533065796,0.024854457005858421,0.0,0.21753187477588654,0.0030773913022130728,0.0,0.0,0.0,0.0,0.025000000000000001,0.040000000000000001,0.14000000000000001,0.29999999999999999,0.80000000000000004,1
16:51:56.229,0.59396487474441528,0.27782228589057922,-10.509346008300781,-0.035952676087617874,-0.96166747808456421,0.47484162449836731,0.070563487708568573,0.13920861482620239,0.33949479460716248,0.20884935557842255,0.32834464311599731,0.97304290533065796,0.024854457005858421,0.0,0.21753187477588654,0.0030773913022130728,0.0,0.0,0.0,0.0,0.025000000000000001,0.040000000000000001,0.14000000000000001,0.29999999999999999,0.80000000000000004,1
16:51:56.309,0.59396487474441528,0.27782228589057922,-10.509346008300781,-0.050866376608610153,0.10359697043895721,-0.017843179404735565,0.070563487708568573,-0.096449069678783417,0.33949479460716248,0.0,0.32834464311599731,1.1178679466247559,0.0034449317026883364,0.0,1.527499794960022,0.0030773913022130728,0.0,0.0,0.0,0.0,0.025000000000000001,0.040000000000000001,0.14000000000000001,0.29999999999999999,0.80000000000000004,1
16:51:56.333,-1.4178515672683716,0.18202149868011475,-10.001602172851562,-0.050866376608610153,0.10359697043895721,-0.017843179404735565,0.045060809701681137,-0.096449069678783417,0.0,0.0,0.11024603247642517,1.1178679466247559,0.0034449317026883364,0.0,1.527499794960022,0.40786546468734741,0.0,0.0,0.0,0.0,0.025000000000000001,0.040000000000000001,0.14000000000000001,0.29999999999999999,0.80000000000000004,1
16:51:56.382,-1.4178515672683716,0.18202149868011475,-10.001602172851562,-0.050866376608610153,0.10359697043895721,-0.017843179404735565,0.045060809701681137,-0.096449069678783417,0.0,0.0,0.11024603247642517,1.1178679466247559,0.0034449317026883364,0.0,1.527499794960022,0.40786546468734741,0.0,0.0,0.0,0.0,0.025000000000000001,0.040000000000000001,0.14000000000000001,0.29999999999999999,0.80000000000000004,1
16:51:56.429,-1.4178515672683716,0.18202149868011475,-10.001602172851562,-0.050866376608610153,0.10359697043895721,-0.017843179404735565,0.045060809701681137,-0.096449069678783417,0.0,0.0,0.11024603247642517,1.1178679466247559,0.0034449317026883364,0.0,1.527499794960022,0.40786546468734741,0.0,0.0,0.0,0.0,0.025000000000000001,0.040000000000000001,0.14000000000000001,0.29999999999999999,0.80000000000000004,1
16:51:56.481,-1.4178515672683716,0.18202149868011475,-10.001602172851562,-0.050866376608610153,0.10359697043895721,-0.017843179404735565,0.045060809701681137,-0.096449069678783417,0.0,0.0,0.11024603247642517,1.1178679466247559,0.0034449317026883364,0.0,1.527499794960022,0.40786546468734741,0.0,0.0,0.0,0.0,0.025000000000000001,0.040000000000000001,0.14000000000000001,0.29999999999999999,0.80000000000000004,1
16:51:56.532,-1.4178515672683716,0.18202149868011475,-10.001602172851562,-0.050866376608610153,0.10359697043895721,-0.017843179404735565,0.045060809701681137,-0.096449069678783417,0.0,0.0,0.11024603247642517,1.1178679466247559,0.0034449317026883364,0.0,1.527499794960022,0.40786546468734741,0.0,0.0,0.0,0.0,0.025000000000000001,0.040000000000000001,0.14000000000000001,0.29999999999999999,0.80000000000000004,1
16:51:56.580,-1.4178515672683716,0.18202149868011475,-10.001602172851562,-0.050866376608610153,0.10359697043895721,-0.017843179404735565,0.045060809701681137,-0.096449069678783417,0.0,0.0,0.11024603247642517,1.1178679466247559,0.0034449317026883364,0.0,1.527499794960022,0.40786546468734741,0.0,0.0,0.0,0.0,0.025000000000000001,0.040000000000000001,0.14000000000000001,0.29999999999999999,0.80000000000000004,1
16:51:56.643,-1.4178515672683716,0.18202149868011475,-10.001602172851562,0.0031957933679223061,0.082291677594184875,0.019707392901182175,0.045060809701681137,0.039499584585428238,0.0,0.18706649541854858,0.11024603247642517,0.9358479380607605,0.063049547374248505,0.0,1.2903189659118652,0.40786546468734741,0.0,0.0,0.0,0.0,0.025000000000000001,0.040000000000000001,0.14000000000000001,0.29999999999999999,0.80000000000000004,1
16:51:56.679,1.2741504907608032,-0.028740234673023224,-10.039922714233398,0.0031957933679223061,0.082291677594184875,0.019707392901182175,0.018599685281515121,0.039499584585428238,0.031421028077602386,0.18706649541854858,0.0013271758798509836,0.9358479380607605,0.063049547374248505,0.23220783472061157,1.2903189659118652,0.13991764187812805,0.0,0.0,0.0,0.0,0.025000000000000001,0.040000000000000001,0.14000000000000001,0.29999999999999999,0.80000000000000004,1
16:51:56.731,1.2741504907608032,-0.028740234673023224,-10.039922714233398,0.0031957933679223061,0.082291677594184875,0.019707392901182175,0.018599685281515121,0.039499584585428238,0.031421028077602386,0.18706649541854858,0.0013271758798509836,0.9358479380607605,0.063049547374248505,0.23220783472061157,1.2903189659118652,0.13991764187812805,0.0,0.0,0.0,0.0,0.025000000000000001,0.040000000000000001,0.14000000000000001,0.29999999999999999,0.80000000000000004,1
16:51:56.782,1.2741504907608032,-0.028740234673023224,-10.039922714233398,0.0031957933679223061,0.082291677594184875,0.019707392901182175,0.018599685281515121,0.039499584585428238,0.031421028077602386,0.18706649541854858,0.0013271758798509836,0.9358479380607605,0.063049547374248505,0.23220783472061157,1.2903189659118652,0.13991764187812805,0.0,0.0,0.0,0.0,0.025000000000000001,0.040000000000000001,0.14000000000000001,0.29999999999999999,0.80000000000000004,1
16:51:56.828,1.2741504907608032,-0.028740234673023224,-10.039922714233398,0.0031957933679223061,0.082291677594184875,0.019707392901182175,0.018599685281515121,0.039499584585428238,0.031421028077602386,0.18706649541854858,0.0013271758798509836,0.9358479380607605,0.063049547374248505,0.23220783472061157,1.2903189659118652,0.13991764187812805,0.0,0.0,0.0,0.0,0.025000000000000001,0.040000000000000001,0.14000000000000001,0.29999999999999999,0.80000000000000004,1
16:51:56.884,1.2741504907608032,-0.028740234673023224,-10.039922714233398,0.0031957933679223061,0.082291677594184875,0.019707392901182175,0.018599685281515121,0.039499584585428238,0.031421028077602386,0.18706649541854858,0.0013271758798509836,0.9358479380607605,0.063049547374248505,0.23220783472061157,1.2903189659118652,0.13991764187812805,0.0,0.0,0.0,0.0,0.025000000000000001,0.040000000000000001,0.14000000000000001,0.29999999999999999,0.80000000000000004,1
16:51:56.959,1.2741504907608032,-0.028740234673023224,-10.039922714233398,0.0031957933679223061,0.082291677594184875,0.019707392901182175,0.018599685281515121,0.039499584585428238,0.031421028077602386,0.18706649541854858,0.0013271758798509836,0.9358479380607605,0.063049547374248505,0.23220783472061157,1.2903189659118652,0.13991764187812805,0.0,0.0,0.0,0.0,0.025000000000000001,0.040000000000000001,0.14000000000000001,0.29999999999999999,0.80000000000000004,1
16:51:56.991,0.80472660064697266,0.87178713083267212,-10.241104125976562,0.0047936900518834591,-0.08628641813993454,-0.02130528911948204,0.018599685281515121,0.041609112173318863,0.062398355454206467,0.081739842891693115,0.17751309275627136,1.1868573427200317,0.024854457005858421,0.23220783472061157,1.6580823659896851,0.13991764187812805,0.0,0.0,0.0,0.0,0.025000000000000001,0.040000000000000001,0.14000000000000001,0.29999999999999999,0.80000000000000004,1
16:51:57.032,0.80472660064697266,0.87178713083267212,-10.241104125976562,0.0047936900518834591,-0.08628641813993454,-0.02130528911948204,0.0044104414992034435,0.041609112173318863,0.062398355454206467,0.081739842891693115,0.17751309275627136,1.1868573427200317,0.024854457005858421,0.0,1.6580823659896851,0.096370033919811249,0.0,0.0,0.0,0.0,0.025000000000000001,0.040000000000000001,0.14000000000000001,0.29999999999999999,0.80000000000000004,1
16:51:57.086,0.80472660064697266,0.87178713083267212,-10.241104125976562,0.0047936900518834591,-0.08628641813993454,-0.02130528911948204,0.0044104414992034435,0.041609112173318863,0.062398355454206467,0.081739842891693115,0.17751309275627136,1.1868573427200317,0.024854457005858421,0.0,1.6580823659896851,0.096370033919811249,0.0,0.0,0.0,0.0,0.025000000000000001,0.040000000000000001,0.14000000000000001,0.29999999999999999,0.80000000000000004,1
16:51:57.129,0.80472660064697266,0.87178713083267212,-10.241104125976562,0.0047936900518834591,-0.08628641813993454,-0.02130528911948204,0.0044104414992034435,0.041609112173318863,0.062398355454206467,0.081739842891693115,0.17751309275627136,1.1868573427200317,0.024854457005858421,0.0,1.6580823659896851,0.096370033919811249,0.0,0.0,0.0,0.0,0.025000000000000001,0.040000000000000001,0.14000000000000001,0.29999999999999999,0.80000000000000004,1
16:51:57.181,0.80472660064697266,0.87178713083267212,-10.241104125976562,0.0047936900518834591,-0.08628641813993454,-0.02130528911948204,0.0044104414992034435,0.041609112173318863,0.062398355454206467,0.081739842891693115,0.17751309275627136,1.1868573427200317,0.024854457005858421,0.0,1.6580823659896851,0.096370033919811249,0.0,0.0,0.0,0.0,0.025000000000000001,0.040000000000000001,0.14000000000000001,0.29999999999999999,0.80000000000000004,1
16:51:57.238,0.80472660064697266,0.87178713083267212,-10.241104125976562,0.0047936900518834591,-0.08628641813993454,-0.02130528911948204,0.0044104414992034435,0.041609112173318863,0.062398355454206467,0.081739842891693115,0.17751309275627136,1.1868573427200317,0.024854457005858421,0.0,1.6580823659896851,0.096370033919811249,0.0,0.0,0.0,0.0,0.025000000000000001,0.040000000000000001,0.14000000000000001,0.29999999999999999,0.80000000000000004,1
16:51:57.319,0.80472660064697266,0.87178713083267212,-10.241104125976562,-0.0047936900518834591,0.021038973703980446,0.0026631611399352551,0.0044104414992034435,0.040650192648172379,0.062398355454206467,0.099999561905860901,0.17751309275627136,1.0706346035003662,0.043330729007720947,0.0,1.5810567140579224,0.096370033919811249,0.0,0.0,0.0,0.0,0.025000000000000001,0.040000000000000001,0.14000000000000001,0.29999999999999999,0.80000000000000004,1
16:51:57.343,0.84304690361022949,-0.086220704019069672,-9.9728612899780273,-0.0047936900518834591,0.021038973703980446,0.0026631611399352551,0.0044104414992034435,0.040650192648172379,0.052831601351499557,0.099999561905860901,0.0021767336875200272,1.0706346035003662,0.043330729007720947,0.068952515721321106,1.5810567140579224,0.1410791277885437,0.0,0.0,0.0,0.0,0.025000000000000001,0.040000000000000001,0.14000000000000001,0.29999999999999999,0.80000000000000004,1
16:51:57.392,0.84304690361022949,-0.086220704019069672,-9.9728612899780273,-0.0047936900518834591,0.021038973703980446,0.0026631611399352551,0.0044104414992034435,0.040650192648172379,0.052831601351499557,0.099999561905860901,0.0021767336875200272,1.0706346035003662,0.043330729007720947,0.068952515721321106,1.5810567140579224,0.1410791277885437,0.0,0.0,0.0,0.0,0.025000000000000001,0.040000000000000001,0.14000000000000001,0.29999999999999999,0.80000000000000004,1
16:51:57.446,0.84304690361022949,-0.086220704019069672,-9.9728612899780273,-0.0047936900518834591,0.021038973703980446,0.0026631611399352551,0.0044104414992034435,0.040650192648172379,0.052831601351499557,0.099999561905860901,0.0021767336875200272,1.0706346035003662,0.043330729007720947,0.068952515721321106,1.5810567140579224,0.1410791277885437,0.0,0.0,0.0,0.0,0.025000000000000001,0.040000000000000001,0.14000000000000001,0.29999999999999999,0.80000000000000004,1
16:51:57.493,0.84304690361022949,-0.086220704019069672,-9.9728612899780273,-0.0047936900518834591,0.021038973703980446,0.0026631611399352551,0.0044104414992034435,0.040650192648172379,0.052831601351499557,0.099999561905860901,0.0021767336875200272,1.0706346035003662,0.043330729007720947,0.068952515721321106,1.5810567140579224,0.1410791277885437,0.0,0.0,0.0,0.0,0.025000000000000001,0.040000000000000001,0.14000000000000001,0.29999999999999999,0.80000000000000004,1
16:51:57.541,0.84304690361022949,-0.086220704019069672,-9.9728612899780273,-0.0047936900518834591,0.021038973703980446,0.0026631611399352551,0.0044104414992034435,0.040650192648172379,0.052831601351499557,0.099999561905860901,0.0021767336875200272,1.0706346035003662,0.043330729007720947,0.068952515721321106,1.5810567140579224,0.1410791277885437,0.0,0.0,0.0,0.0,0.025000000000000001,0.040000000000000001,0.14000000000000001,0.29999999999999999,0.80000000000000004,1
16:51:57.609,0.84304690361022949,-0.086220704019069672,-9.9728612899780273,-0.0047936900518834591,0.021038973703980446,0.0026631611399352551,0.0044104414992034435,0.040650192648172379,0.052831601351499557,0.099999561905860901,0.0021767336875200272,1.0706346035003662,0.043330729007720947,0.068952515721321106,1.5810567140579224,0.1410791277885437,0.0,0.0,0.0,0.0,0.025000000000000001,0.040000000000000001,0.14000000000000001,0.29999999999999999,0.80000000000000004,1
16:51:57.682,1.0921289920806885,-0.0095800785347819328,-9.9728612899780273,0.013582121580839157,0.015978965908288956,-0.020240023732185364,0.0044104414992034435,0.051004711538553238,0.065731048583984375,0.16714313626289368,0.0047180945985019207,0.98165810108184814,0.068767771124839783,0.068952515721321106,1.5103834867477417,0.1410791277885437,0.0,0.0,0.0,0.0,0.025000000000000001,0.040000000000000001,0.14000000000000001,0.29999999999999999,0.80000000000000004,1
16:51:57.717,1.0921289920806885,-0.0095800785347819328,-10.001602172851562,0.013582121580839157,0.015978965908288956,-0.020240023732185364,0.0023013909813016653,0.051004711538553238,0.065731048583984375,0.16714313626289368,0.0047180945985019207,0.98165810108184814,0.068767771124839783,0.152974933385849,1.5103834867477417,0.10679452121257782,0.0,0.0,0.0,0.0,0.025000000000000001,0.040000000000000001,0.14000000000000001,0.29999999999999999,0.80000000000000004,1
16:51:57.759,1.0921289920806885,-0.0095800785347819328,-10.001602172851562,0.013582121580839157,0.015978965908288956,-0.020240023732185364,0.0023013909813016653,0.051004711538553238,0.065731048583984375,0.16714313626289368,0.0047180945985019207,0.98165810108184814,0.068767771124839783,0.152974933385849,1.5103834867477417,0.10679452121257782,0.0,0.0,0.0,0.0,0.025000000000000001,0.040000000000000001,0.14000000000000001,0.29999999999999999,0.80000000000000004,1
16:51:57.808,1.0921289920806885,-0.0095800785347819328,-10.001602172851562,0.013582121580839157,0.015978965908288956,-0.020240023732185364,0.0023013909813016653,0.051004711538553238,0.065731048583984375,0.16714313626289368,0.0047180945985019207,0.98165810108184814,0.068767771124839783,0.152974933385849,1.5103834867477417,0.10679452121257782,0.0,0.0,0.0,0.0,0.025000000000000001,0.040000000000000001,0.14000000000000001,0.29999999999999999,0.80000000000000004,1
16:51:57.862,1.0921289920806885,-0.0095800785347819328,-10.001602172851562,0.013582121580839157,0.015978965908288956,-0.020240023732185364,0.0023013909813016653,0.051004711538553238,0.065731048583984375,0.16714313626289368,0.0047180945985019207,0.98165810108184814,0.068767771124839783,0.152974933385849,1.5103834867477417,0.10679452121257782,0.0,0.0,0.0,0.0,0.025000000000000001,0.040000000000000001,0.14000000000000001,0.29999999999999999,0.80000000000000004,1
16:51:57.903,1.0921289920806885,-0.0095800785347819328,-10.001602172851562,0.013582121580839157,0.015978965908288956,-0.020240023732185364,0.0023013909813016653,0.051004711538553238,0.065731048583984375,0.16714313626289368,0.0047180945985019207,0.98165810108184814,0.068767771124839783,0.152974933385849,1.5103834867477417,0.10679452121257782,0.0,0.0,0.0,0.0,0.025000000000000001,0.040000000000000001,0.14000000000000001,0.29999999999999999,0.80000000000000004,1
16:51:57.986,1.0921289920806885,-0.0095800785347819328,-10.001602172851562,0.013582121580839157,0.015978965908288956,-0.020240023732185364,0.0023013909813016653,0.050045792013406754,0.065731048583984375,0.16714313626289368,0.0047180945985019207,1.0757077932357788,0.068767771124839783,0.152974933385849,1.5103834867477417,0.10679452121257782,0.0,0.0,0.0,0.0,0.025000000000000001,0.040000000000000001,0.14000000000000001,0.29999999999999999,0.80000000000000004,1
16:51:58.019,0.78556644916534424,0.067060552537441254,-10.011181831359863,-0.0069242189638316631,0.033822145313024521,0.01065264455974102,0.0024930795188993216,0.050045792013406754,0.0854930579662323,0.16043366491794586,0.0048398477956652641,1.0757077932357788,0.05396072193980217,0.079695381224155426,1.4936167001724243,0.082344360649585724,0.0,0.0,0.0,0.0,0.025000000000000001,0.040000000000000001,0.14000000000000001,0.29999999999999999,0.80000000000000004,1
16:51:58.065,0.78556644916534424,0.067060552537441254,-10.011181831359863,-0.0069242189638316631,0.033822145313024521,0.01065264455974102,0.0024930795188993216,0.050045792013406754,0.0854930579662323,0.16043366491794586,0.0048398477956652641,1.0757077932357788,0.05396072193980217,0.079695381224155426,1.4936167001724243,0.082344360649585724,0.0,0.0,0.0,0.0,0.025000000000000001,0.040000000000000001,0.14000000000000001,0.29999999999999999,0.80000000000000004,1
16:51:58.114,0.78556644916534424,0.067060552537441254,-10.011181831359863,-0.0069242189638316631,0.033822145313024521,0.01065264455974102,0.0024930795188993216,0.050045792013406754,0.0854930579662323,0.16043366491794586,0.0048398477956652641,1.0757077932357788,0.05396072193980217,0.079695381224155426,1.4936167001724243,0.082344360649585724,0.0,0.0,0.0,0.0,0.025000000000000001,0.040000000000000001,0.14000000000000001,0.29999999999999999,0.80000000000000004,1
16:51:58.170,0.78556644916534424,0.067060552537441254,-10.011181831359863,-0.0069242189638316631,0.033822145313024521,0.01065264455974102,0.0024930795188993216,0.050045792013406754,0.0854930579662323,0.16043366491794586,0.0048398477956652641,1.0757077932357788,0.05396072193980217,0.079695381224155426,1.4936167001724243,0.082344360649585724,0.0,0.0,0.0,0.0,0.025000000000000001,0.040000000000000001,0.14000000000000001,0.29999999999999999,0.80000000000000004,1
16:51:58.216,0.78556644916534424,0.067060552537441254,-10.011181831359863,-0.0069242189638316631,0.033822145313024521,0.01065264455974102,0.0024930795188993216,0.050045792013406754,0.0854930579662323,0.16043366491794586,0.0048398477956652641,1.0757077932357788,0.05396072193980217,0.079695381224155426,1.4936167001724243,0.082344360649585724,0.0,0.0,0.0,0.0,0.025000000000000001,0.040000000000000001,0.14000000000000001,0.29999999999999999,0.80000000000000004,1
16:51:58.276,0.78556644916534424,0.067060552537441254,-10.011181831359863,-0.0069242189638316631,0.033822145313024521,0.01065264455974102,0.0024930795188993216,0.050045792013406754,0.0854930579662323,0.16043366491794586,0.0048398477956652641,1.0757077932357788,0.05396072193980217,0.079695381224155426,1.4936167001724243,0.082344360649585724,0.0,0.0,0.0,0.0,0.025000000000000001,0.040000000000000001,0.14000000000000001,0.29999999999999999,0.80000000000000004,1
16:51:58.340,0.87178713083267212,-0.16286133229732513,-9.9441213607788086,-0.010120011866092682,0.15978966653347015,0.040480047464370728,0.0024930795188993216,0.073630638420581818,0.0,0.25914213061332703,0.0037925555370748043,1.0859822034835815,0.075070075690746307,0.079695381224155426,1.9923741817474365,0.0023080396931618452,0.0,0.0,0.0,0.0,0.025000000000000001,0.040000000000000001,0.14000000000000001,0.29999999999999999,0.80000000000000004,1
16:51:58.368,0.87178713083267212,-0.16286133229732513,-9.9441213607788086,-0.010120011866092682,0.15978966653347015,0.040480047464370728,0.0021092256065458059,0.073630638420581818,0.0,0.25914213061332703,0.0037925555370748043,1.0859822034835815,0.075070075690746307,0.0,1.9923741817474365,0.0023080396931618452,0.0,0.0,0.0,0.0,0.025000000000000001,0.040000000000000001,0.14000000000000001,0.29999999999999999,0.80000000000000004,1
16:51:58.417,0.87178713083267212,-0.16286133229732513,-9.9441213607788086,-0.010120011866092682,0.15978966653347015,0.040480047464370728,0.0021092256065458059,0.073630638420581818,0.0,0.25914213061332703,0.0037925555370748043,1.0859822034835815,0.075070075690746307,0.0,1.9923741817474365,0.0023080396931618452,0.0,0.0,0.0,0.0,0.025000000000000001,0.040000000000000001,0.14000000000000001,0.29999999999999999,0.80000000000000004,1
16:51:58.466,0.87178713083267212,-0.16286133229732513,-9.9441213607788086,-0.010120011866092682,0.15978966653347015,0.040480047464370728,0.0021092256065458059,0.073630638420581818,0.0,0.25914213061332703,0.0037925555370748043,1.0859822034835815,0.075070075690746307,0.0,1.9923741817474365,0.0023080396931618452,0.0,0.0,0.0,0.0,0.025000000000000001,0.040000000000000001,0.14000000000000001,0.29999999999999999,0.80000000000000004,1
16:51:58.525,0.87178713083267212,-0.16286133229732513,-9.9441213607788086,-0.010120011866092682,0.15978966653347015,0.040480047464370728,0.0021092256065458059,0.073630638420581818,0.0,0.25914213061332703,0.0037925555370748043,1.0859822034835815,0.075070075690746307,0.0,1.9923741817474365,0.0023080396931618452,0.0,0.0,0.0,0.0,0.025000000000000001,0.040000000000000001,0.14000000000000001,0.29999999999999999,0.80000000000000004,1
16:51:58.565,0.87178713083267212,-0.16286133229732513,-9.9441213607788086,-0.010120011866092682,0.15978966653347015,0.040480047464370728,0.0021092256065458059,0.073630638420581818,0.0,0.25914213061332703,0.0037925555370748043,1.0859822034835815,0.075070075690746307,0.0,1.9923741817474365,0.0023080396931618452,0.0,0.0,0.0,0.0,0.025000000000000001,0.040000000000000001,0.14000000000000001,0.29999999999999999,0.80000000000000004,1
16:51:58.649,0.87178713083267212,-0.16286133229732513,-9.9441213607788086,-0.010120011866092682,0.15978966653347015,0.040480047464370728,0.0021092256065458059,0.073630638420581818,0.0,0.25914213061332703,0.0037925555370748043,1.0859822034835815,0.075070075690746307,0.0,1.9923741817474365,0.0023080396931618452,0.0,0.0,0.0,0.0,0.025000000000000001,0.040000000000000001,0.14000000000000001,0.29999999999999999,0.80000000000000004,1
16:51:58.679,2.1459376811981201,0.047900393605232239,-9.9441213607788086,0.059921126812696457,0.50759851932525635,-0.10333064943552017,0.0021092256065458059,0.15627413988113403,0.0,0.54602336883544922,0.0033944821916520596,0.49655982851982117,0.36255946755409241,0.0,1.6992512941360474,0.0023080396931618452,0.0,0.0,0.0,0.0,0.025000000000000001,0.040000000000000001,0.14000000000000001,0.29999999999999999,0.80000000000000004,1
16:51:58.726,2.1459376811981201,0.047900393605232239,-9.7046194076538086,0.059921126812696457,0.50759851932525635,-0.10333064943552017,0.0024930795188993216,0.15627413988113403,0.0,0.54602336883544922,0.0033944821916520596,0.49655982851982117,0.36255946755409241,0.0,1.6992512941360474,0.0021389408502727747,0.0,0.0,0.0,0.0,0.025000000000000001,0.040000000000000001,0.14000000000000001,0.29999999999999999,0.80000000000000004,1
16:51:58.766,2.1459376811981201,0.047900393605232239,-9.7046194076538086,0.059921126812696457,0.50759851932525635,-0.10333064943552017,0.0024930795188993216,0.15627413988113403,0.0,0.54602336883544922,0.0033944821916520596,0.49655982851982117,0.36255946755409241,0.0,1.6992512941360474,0.0021389408502727747,0.0,0.0,0.0,0.0,0.025000000000000001,0.040000000000000001,0.14000000000000001,0.29999999999999999,0.80000000000000004,1
16:51:58.827,2.1459376811981201,0.047900393605232239,-9.7046194076538086,0.059921126812696457,0.50759851932525635,-0.10333064943552017,0.0024930795188993216,0.15627413988113403,0.0,0.54602336883544922,0.0033944821916520596,0.49655982851982117,0.36255946755409241,0.0,1.6992512941360474,0.0021389408502727747,0.0,0.0,0.0,0.0,0.025000000000000001,0.040000000000000001,0.14000000000000001,0.29999999999999999,0.80000000000000004,1
16:51:58.878,2.1459376811981201,0.047900393605232239,-9.7046194076538086,0.059921126812696457,0.50759851932525635,-0.10333064943552017,0.0024930795188993216,0.15627413988113403,0.0,0.54602336883544922,0.0033944821916520596,0.49655982851982117,0.36255946755409241,0.0,1.6992512941360474,0.0021389408502727747,0.0,0.0,0.0,0.0,0.025000000000000001,0.040000000000000001,0.14000000000000001,0.29999999999999999,0.80000000000000004,1
16:51:58.922,2.1459376811981201,0.047900393605232239,-9.7046194076538086,0.059921126812696457,0.50759851932525635,-0.10333064943552017,0.0024930795188993216,0.15627413988113403,0.0,0.54602336883544922,0.0033944821916520596,0.49655982851982117,0.36255946755409241,0.0,1.6992512941360474,0.0021389408502727747,0.0,0.0,0.0,0.0,0.025000000000000001,0.040000000000000001,0.14000000000000001,0.29999999999999999,0.80000000000000004,1
16:51:59.009,2.1459376811981201,0.047900393605232239,-9.7046194076538086,-0.16298545897006989,0.0066579030826687813,0.20426446199417114,0.0024930795188993216,0.31024724245071411,0.0,0.7452385425567627,0.0033944821916520596,0.27225491404533386,0.44110792875289917,0.0,0.0057699196040630341,0.0021389408502727747,0.0,0.0,0.0,0.0,0.025000000000000001,0.040000000000000001,0.14000000000000001,0.29999999999999999,0.80000000000000004,1
16:51:59.038,4.061953067779541,0.41194337606430054,-9.1298151016235352,-0.16298545897006989,0.0066579030826687813,0.20426446199417114,-0.014956299215555191,0.31024724245071411,0.0,0.7452385425567627,0.0029201880097389221,0.27225491404533386,0.44110792875289917,0.0,0.0057699196040630341,0.0028765981551259756,0.0,0.0,0.0,0.0,0.025000000000000001,0.040000000000000001,0.14000000000000001,0.29999999999999999,0.80000000000000004,1
16:51:59.091,4.061953067779541,0.41194337606430054,-9.1298151016235352,-0.16298545897006989,0.0066579030826687813,0.20426446199417114,-0.014956299215555191,0.31024724245071411,0.0,0.7452385425567627,0.0029201880097389221,0.27225491404533386,0.44110792875289917,0.0,0.0057699196040630341,0.0028765981551259756,0.0,0.0,0.0,0.0,0.025000000000000001,0.040000000000000001,0.14000000000000001,0.29999999999999999,0.80000000000000004,1
16:51:59.138,4.061953067779541,0.41194337606430054,-9.1298151016235352,-0.16298545897006989,0.0066579030826687813,0.20426446199417114,-0.014956299215555191,0.31024724245071411,0.0,0.7452385425567627,0.0029201880097389221,0.27225491404533386,0.44110792875289917,0.0,0.0057699196040630341,0.0028765981551259756,0.0,0.0,1.5752952995411127e-21,1.5752952995411127e-21,0.025000000000000001,0.040000000000000001,0.14000000000000001,0.29999999999999999,0.80000000000000004,1
16:51:59.191,4.061953067779541,0.41194337606430054,-9.1298151016235352,-0.16298545897006989,0.0066579030826687813,0.20426446199417114,-0.014956299215555191,0.31024724245071411,0.0,0.7452385425567627,0.0029201880097389221,0.27225491404533386,0.44110792875289917,0.0,0.0057699196040630341,0.0028765981551259756,0.0,0.0,1.5752952995411127e-21,1.5752952995411127e-21,0.025000000000000001,0.040000000000000001,0.14000000000000001,0.29999999999999999,0.80000000000000004,1
16:51:59.245,4.061953067779541,0.41194337606430054,-9.1298151016235352,-0.16298545897006989,0.0066579030826687813,0.20426446199417114,-0.014956299215555191,0.31024724245071411,0.0,0.7452385425567627,0.0029201880097389221,0.27225491404533386,0.44110792875289917,0.0,0.0057699196040630341,0.0028765981551259756,0.0,0.0,1.5752952995411127e-21,1.5752952995411127e-21,0.025000000000000001,0.040000000000000001,0.14000000000000001,0.29999999999999999,0.80000000000000004,1
16:51:59.331,4.061953067779541,0.41194337606430054,-9.1298151016235352,-0.16298545897006989,0.0066579030826687813,0.20426446199417114,-0.014956299215555191,0.12310153990983963,0.0,0.7452385425567627,0.0029201880097389221,0.74225890636444092,0.4764498770236969,0.0,0.0057699196040630341,0.0028765981551259756,0.0,0.0,1.5752952995411127e-21,1.5752952995411127e-21,0.025000000000000001,0.040000000000000001,0.14000000000000001,0.29999999999999999,0.80000000000000004,1
16:51:59.362,1.4849121570587158,0.64186525344848633,-9.7046194076538086,0.078563250601291656,-0.087884314358234406,0.0050600059330463409,-0.026077572256326675,0.12310153990983963,0.0,0.70727747678756714,0.0039525171741843224,0.74225890636444092,0.4764498770236969,0.0,0.30093610286712646,0.0028765981551259756,0.0,0.0,1.5752952995411127e-21,1.5752952995411127e-21,0.025000000000000001,0.040000000000000001,0.14000000000000001,0.29999999999999999,0.80000000000000004,1
16:51:59.409,1.4849121570587158,0.64186525344848633,-9.7046194076538086,0.078563250601291656,-0.087884314358234406,0.0050600059330463409,-0.026077572256326675,0.12310153990983963,0.0,0.70727747678756714,0.0039525171741843224,0.74225890636444092,0.4764498770236969,0.0,0.30093610286712646,0.0028765981551259756,0.0,0.0,1.5752952995411127e-21,1.5752952995411127e-21,0.025000000000000001,0.040000000000000001,0.14000000000000001,0.29999999999999999,0.80000000000000004,1
16:51:59.460,1.4849121570587158,0.64186525344848633,-9.7046194076538086,0.078563250601291656,-0.087884314358234406,0.0050600059330463409,-0.026077572256326675,0.12310153990983963,0.0,0.70727747678756714,0.0039525171741843224,0.74225890636444092,0.4764498770236969,0.0,0.30093610286712646,0.0028765981551259756,0.0,0.0,1.5752952995411127e-21,1.5752952995411127e-21,0.025000000000000001,0.040000000000000001,0.14000000000000001,0.29999999999999999,0.80000000000000004,1
16:51:59.512,1.4849121570587158,0.64186525344848633,-9.7046194076538086,0.078563250601291656,-0.087884314358234406,0.0050600059330463409,-0.026077572256326675,0.12310153990983963,0.0,0.70727747678756714,0.0039525171741843224,0.74225890636444092,0.4764498770236969,0.0,0.30093610286712646,0.0028765981551259756,0.0,0.0,1.5752952995411127e-21,1.5752952995411127e-21,0.025000000000000001,0.040000000000000001,0.14000000000000001,0.29999999999999999,0.80000000000000004,1
16:51:59.559,1.4849121570587158,0.64186525344848633,-9.7046194076538086,0.078563250601291656,-0.087884314358234406,0.0050600059330463409,-0.026077572256326675,0.12310153990983963,0.0,0.70727747678756714,0.0039525171741843224,0.74225890636444092,0.4764498770236969,0.0,0.30093610286712646,0.0028765981551259756,0.0,0.0,1.5752952995411127e-21,1.5752952995411127e-21,0.025000000000000001,0.040000000000000001,0.14000000000000001,0.29999999999999999,0.80000000000000004,1
16:51:59.630,1.4849121570587158,0.64186525344848633,-9.7046194076538086,0.078563250601291656,-0.087884314358234406,0.0050600059330463409,-0.026077572256326675,0.12310153990983963,0.0,0.70727747678756714,0.0039525171741843224,0.74225890636444092,0.4764498770236969,0.0,0.30093610286712646,0.0028765981551259756,0.0,0.0,1.5752952995411127e-21,1.5752952995411127e-21,0.025000000000000001,0.040000000000000001,0.14000000000000001,0.29999999999999999,0.80000000000000004,1
16:51:59.689,1.6286133527755737,-0.59396487474441528,-10.030342102050781,0.11265171319246292,0.006125270389020443,0.0050600059330463409,-0.026077572256326675,0.11082965880632401,0.0,0.56506043672561646,0.0043139727786183357,0.25613212585449219,0.60760146379470825,0.0,0.6085619330406189,0.0020827222615480423,0.035723049193620682,-7.4505805969238281e-08,1.5752594537015795e-21,0.035723049193698377,0.025000000000000001,0.040000000000000001,0.14000000000000001,0.29999999999999999,0.80000000000000004,1
16:51:59.716,1.6286133527755737,-0.59396487474441528,-10.030342102050781,0.11265171319246292,0.006125270389020443,0.0050600059330463409,0.037007506936788559,0.11082965880632401,0.0,0.56506043672561646,0.0043139727786183357,0.25613212585449219,0.60760146379470825,0.0,0.6085619330406189,0.0020827222615480423,0.035723049193620682,-7.4505805969238281e-08,1.5752594537015795e-21,0.035723049193698377,0.025000000000000001,0.040000000000000001,0.14000000000000001,0.29999999999999999,0.80000000000000004,1
16:51:59.765,1.6286133527755737,-0.59396487474441528,-10.030342102050781,0.11265171319246292,0.006125270389020443,0.0050600059330463409,0.037007506936788559,0.11082965880632401,0.0,0.56506043672561646,0.0043139727786183357,0.25613212585449219,0.60760146379470825,0.0,0.6085619330406189,0.0020827222615480423,0.035723049193620682,-7.4505805969238281e-08,1.5752594537015795e-21,0.035723049193698377,0.025000000000000001,0.040000000000000001,0.14000000000000001,0.29999999999999999,0.80000000000000004,1
16:51:59.825,1.6286133527755737,-0.59396487474441528,-10.030342102050781,0.11265171319246292,0.006125270389020443,0.0050600059330463409,0.037007506936788559,0.11082965880632401,0.0,0.56506043672561646,0.0043139727786183357,0.25613212585449219,0.60760146379470825,0.0,0.6085619330406189,0.0020827222615480423,0.035723049193620682,-7.4505805969238281e-08,1.5752594537015795e-21,0.035723049193698377,0.025000000000000001,0.040000000000000001,0.14000000000000001,0.29999999999999999,0.80000000000000004,1
16:51:59.860,1.6286133527755737,-0.59396487474441528,-10.030342102050781,0.11265171319246292,0.006125270389020443,0.0050600059330463409,0.037007506936788559,0.11082965880632401,0.0,0.56506043672561646,0.0043139727786183357,0.25613212585449219,0.60760146379470825,0.0,0.6085619330406189,0.0020827222615480423,0.035723049193620682,-7.4505805969238281e-08,1.5752594537015795e-21,0.035723049193698377,0.025000000000000001,0.040000000000000001,0.14000000000000001,0.29999999999999999,0.80000000000000004,1
16:51:59.909,1.6286133527755737,-0.59396487474441528,-10.030342102050781,0.11265171319246292,0.006125270389020443,0.0050600059330463409,0.037007506936788559,0.11082965880632401,0.0,0.56506043672561646,0.0043139727786183357,0.25613212585449219,0.60760146379470825,0.0,0.6085619330406189,0.0020827222615480423,0.035723049193620682,-7.4505805969238281e-08,1.5752594537015795e-21,0.035723049193698377,0.025000000000000001,0.040000000000000001,0.14000000000000001,0.29999999999999999,0.80000000000000004,1
16:51:59.991,1.6286133527755737,-0.59396487474441528,-10.030342102050781,0.11265171319246292,0.006125270389020443,0.0050600059330463409,0.037007506936788559,0.11082965880632401,0.0,0.56506043672561646,0.0043139727786183357,0.25613212585449219,0.60760146379470825,0.0,0.6085619330406189,0.0020827222615480423,0.035723049193620682,-7.4505805969238281e-08,1.5752594537015795e-21,0.035723049193698377,0.025000000000000001,0.040000000000000001,0.14000000000000001,0.29999999999999999,0.80000000000000004,1
16:52:00.029,1.0633887052536011,-0.44068360328674316,-10.164463043212891,0.10306433588266373,-0.013582121580839157,-0.039947416633367538,0.037007506936788559,0.087053127586841583,0.0,1.0466938018798828,0.0037925555370748043,1.1178679466247559,0.032090991735458374,0.0,0.0,0.0020827222615480423,0.035723049193620682,-7.4505805969238281e-08,1.5752594537015795e-21,0.035723049193698377,0.025000000000000001,0.040000000000000001,0.14000000000000001,0.29999999999999999,0.80000000000000004,1
16:52:00.063,1.0633887052536011,-0.44068360328674316,-10.164463043212891,0.10306433588266373,-0.013582121580839157,-0.039947416633367538,0.060975726693868637,0.087053127586841583,0.0,1.0466938018798828,0.0037925555370748043,1.1178679466247559,0.032090991735458374,0.0,0.0,0.082875959575176239,0.035723049193620682,-7.4505805969238281e-08,1.5752594537015795e-21,0.035723049193698377,0.025000000000000001,0.040000000000000001,0.14000000000000001,0.29999999999999999,0.80000000000000004,1
16:52:00.124,1.0633887052536011,-0.44068360328674316,-10.164463043212891,0.10306433588266373,-0.013582121580839157,-0.039947416633367538,0.060975726693868637,0.087053127586841583,0.0,1.0466938018798828,0.0037925555370748043,1.1178679466247559,0.032090991735458374,0.0,0.0,0.082875959575176239,0.035723049193620682,-7.4505805969238281e-08,1.5752594537015795e-21,0.035723049193698377,0.025000000000000001,0.040000000000000001,0.14000000000000001,0.29999999999999999,0.80000000000000004,1
16:52:00.169,1.0633887052536011,-0.44068360328674316,-10.164463043212891,0.10306433588266373,-0.013582121580839157,-0.039947416633367538,0.060975726693868637,0.087053127586841583,0.0,1.0466938018798828,0.0037925555370748043,1.1178679466247559,0.032090991735458374,0.0,0.0,0.082875959575176239,0.035723049193620682,-7.4505805969238281e-08,1.5752594537015795e-21,0.035723049193698377,0.025000000000000001,0.040000000000000001,0.14000000000000001,0.29999999999999999,0.80000000000000004,1
16:52:00.220,1.0633887052536011,-0.44068360328674316,-10.164463043212891,0.10306433588266373,-0.013582121580839157,-0.039947416633367538,0.060975726693868637,0.087053127586841583,0.0,1.0466938018798828,0.0037925555370748043,1.1178679466247559,0.032090991735458374,0.0,0.0,0.082875959575176239,0.035723049193620682,-7.4505805969238281e-08,1.5752594537015795e-21,0.035723049193698377,0.025000000000000001,0.040000000000000001,0.14000000000000001,0.29999999999999999,0.80000000000000004,1
16:52:00.262,1.0633887052536011,-0.44068360328674316,-10.164463043212891,0.10306433588266373,-0.013582121580839157,-0.039947416633367538,0.060975726693868637,0.087053127586841583,0.0,1.0466938018798828,0.0037925555370748043,1.1178679466247559,0.032090991735458374,0.0,0.0,0.082875959575176239,0.035723049193620682,-7.4505805969238281e-08,1.5752594537015795e-21,0.035723049193698377,0.025000000000000001,0.040000000000000001,0.14000000000000001,0.29999999999999999,0.80000000000000004,1
16:52:00.346,1.0633887052536011,-0.44068360328674316,-10.164463043212891,-0.43782368302345276,0.26791399717330933,-0.039947416633367538,0.060975726693868637,0.20075970888137817,0.0,1.0466938018798828,0.0037925555370748043,0.0,0.03276437520980835,0.0,0.0,0.082875959575176239,0.094007976353168488,0.0,2.0727835505516503e-21,0.094007976353168488,0.025000000000000001,0.040000000000000001,0.14000000000000001,0.29999999999999999,0.80000000000000004,1
16:52:00.383,2.3758594989776611,-0.57480472326278687,-7.9802055358886719,-0.43782368302345276,0.26791399717330933,-0.34487935900688171,0.18216055631637573,0.20075970888137817,0.0,0.0,0.0040727662853896618,0.0,0.03276437520980835,3.4209220409393311,0.0,0.82621443271636963,0.094007976353168488,0.0,2.0727835505516503e-21,0.094007976353168488,0.025000000000000001,0.040000000000000001,0.14000000000000001,0.29999999999999999,0.80000000000000004,0
16:52:00.416,2.3758594989776611,-0.57480472326278687,-7.9802055358886719,-0.43782368302345276,0.26791399717330933,-0.34487935900688171,0.18216055631637573,0.20075970888137817,0.0,0.0,0.0040727662853896618,0.0,0.03276437520980835,3.4209220409393311,0.0,0.82621443271636963,0.094007976353168488,0.0,2.0727835505516503e-21,0.094007976353168488,0.025000000000000001,0.040000000000000001,0.14000000000000001,0.29999999999999999,0.80000000000000004,0
16:52:00.468,2.3758594989776611,-0.57480472326278687,-7.9802055358886719,-0.43782368302345276,0.26791399717330933,-0.34487935900688171,0.18216055631637573,0.20075970888137817,0.0,0.0,0.0040727662853896618,0.0,0.03276437520980835,3.4209220409393311,0.0,0.82621443271636963,0.094007976353168488,0.0,2.0727835505516503e-21,0.094007976353168488,0.025000000000000001,0.040000000000000001,0.14000000000000001,0.29999999999999999,0.80000000000000004,0
16:52:00.518,2.3758594989776611,-0.57480472326278687,-7.9802055358886719,-0.43782368302345276,0.26791399717330933,-0.34487935900688171,0.18216055631637573,0.20075970888137817,0.0,0.0,0.0040727662853896618,0.0,0.03276437520980835,3.4209220409393311,0.0,0.82621443271636963,0.094007976353168488,0.0,2.0727835505516503e-21,0.094007976353168488,0.025000000000000001,0.040000000000000001,0.14000000000000001,0.29999999999999999,0.80000000000000004,0
16:52:00.567,2.3758594989776611,-0.57480472326278687,-7.9802055358886719,-0.43782368302345276,0.26791399717330933,-0.34487935900688171,0.18216055631637573,0.20075970888137817,0.0,0.0,0.0040727662853896618,0.0,0.03276437520980835,3.4209220409393311,0.0,0.82621443271636963,0.094007976353168488,0.0,2.0727835505516503e-21,0.094007976353168488,0.025000000000000001,0.040000000000000001,0.14000000000000001,0.29999999999999999,0.80000000000000004,0
16:52:00.618,2.3758594989776611,-0.57480472326278687,-7.9802055358886719,-0.43782368302345276,0.26791399717330933,-0.34487935900688171,0.18216055631637573,0.20075970888137817,0.0,0.0,0.0040727662853896618,0.0,0.03276437520980835,3.4209220409393311,0.0,0.82621443271636963,0.094007976353168488,0.0,2.0727835505516503e-21,0.094007976353168488,0.025000000000000001,0.040000000000000001,0.14000000000000001,0.29999999999999999,0.80000000000000004,0
16:52:00.695,2.3758594989776611,-0.57480472326278687,-7.9802055358886719,-0.37896782159805298,-1.0175938606262207,0.019174760207533836,0.18216055631637573,0.04122573509812355,0.0,0.0,0.0038724928162992001,0.0,0.31028568744659424,3.4209220409393311,1.8471782207489014,0.82621443271636963,0.094007976353168488,0.0,2.0727835505516503e-21,0.094007976353168488,0.025000000000000001,0.040000000000000001,0.14000000000000001,0.29999999999999999,0.80000000000000004,0
16:52:00.722,-0.40236330032348633,1.9447559118270874,-9.4363775253295898,-0.37896782159805298,-1.0175938606262207,0.019174760207533836,-0.11025459319353104,0.04122573509812355,0.0,0.0,0.0038724928162992001,0.0,0.31028568744659424,0.0,1.8471782207489014,0.0016912522260099649,0.094007976353168488,0.0,2.0727835505516503e-21,0.094007976353168488,0.025000000000000001,0.040000000000000001,0.14000000000000001,0.29999999999999999,0.80000000000000004,1
16:52:00.769,-0.40236330032348633,1.9447559118270874,-9.4363775253295898,-0.37896782159805298,-1.0175938606262207,0.019174760207533836,-0.11025459319353104,0.04122573509812355,0.0,0.0,0.0038724928162992001,0.0,0.31028568744659424,0.0,1.8471782207489014,0.0016912522260099649,0.094007961452007294,0.0,2.0727835505516503e-21,0.094007961452007294,0.025000000000000001,0.040000000000000001,0.14000000000000001,0.29999999999999999,0.80000000000000004,1
16:52:00.824,-0.40236330032348633,1.9447559118270874,-9.4363775253295898,-0.37896782159805298,-1.0175938606262207,0.019174760207533836,-0.11025459319353104,0.04122573509812355,0.0,0.0,0.0038724928162992001,0.0,0.31028568744659424,0.0,1.8471782207489014,0.0016912522260099649,0.094007961452007294,0.0,2.0727835505516503e-21,0.094007961452007294,0.025000000000000001,0.040000000000000001,0.14000000000000001,0.29999999999999999,0.80000000000000004,1
16:52:00.867,-0.40236330032348633,1.9447559118270874,-9.4363775253295898,-0.37896782159805298,-1.0175938606262207,0.019174760207533836,-0.11025459319353104,0.04122573509812355,0.0,0.0,0.0038724928162992001,0.0,0.31028568744659424,0.0,1.8471782207489014,0.0016912522260099649,0.094007961452007294,0.0,2.0727835505516503e-21,0.094007961452007294,0.025000000000000001,0.040000000000000001,0.14000000000000001,0.29999999999999999,0.80000000000000004,1
16:52:00.924,-0.40236330032348633,1.9447559118270874,-9.4363775253295898,-0.37896782159805298,-1.0175938606262207,0.019174760207533836,-0.11025459319353104,0.04122573509812355,0.0,0.0,0.0038724928162992001,0.0,0.31028568744659424,0.0,1.8471782207489014,0.0016912522260099649,0.094007961452007294,0.0,2.0727835505516503e-21,0.094007961452007294,0.025000000000000001,0.040000000000000001,0.14000000000000001,0.29999999999999999,0.80000000000000004,1
16:52:01.003,-0.40236330032348633,1.9447559118270874,-9.4363775253295898,-0.37896782159805298,-1.0175938606262207,0.019174760207533836,-0.11025459319353104,0.04122573509812355,0.0,0.0,0.0038724928162992001,0.0,0.31028568744659424,0.0,1.8471782207489014,0.0016912522260099649,0.094007961452007294,0.0,2.0727835505516503e-21,0.094007961452007294,0.025000000000000001,0.040000000000000001,0.14000000000000001,0.29999999999999999,0.80000000000000004,1
16:52:01.031,-1.3699512481689453,-1.0921289920806885,-9.4363775253295898,0.16058862209320068,0.017843179404735565,-0.34328147768974304,-0.11025459319353104,-0.051005061715841293,0.0,0.0,0.17634770274162292,0.38852739334106445,0.0,0.0,0.0,0.0016912522260099649,0.094007961452007294,0.0,2.0727835505516503e-21,0.094007961452007294,0.025000000000000001,0.040000000000000001,0.14000000000000001,0.29999999999999999,0.80000000000000004,1
16:52:01.071,-1.3699512481689453,-1.0921289920806885,-10.461445808410645,0.16058862209320068,0.017843179404735565,-0.34328147768974304,0.015723403543233871,-0.051005061715841293,0.0,0.0,0.17634770274162292,0.38852739334106445,0.0,0.0,0.0,0.20903980731964111,0.094007961452007294,0.0,2.0727835505516503e-21,0.094007961452007294,0.025000000000000001,0.040000000000000001,0.14000000000000001,0.29999999999999999,0.80000000000000004,1
16:52:01.122,-1.3699512481689453,-1.0921289920806885,-10.461445808410645,0.16058862209320068,0.017843179404735565,-0.34328147768974304,0.015723403543233871,-0.051005061715841293,0.0,0.0,0.17634770274162292,0.38852739334106445,0.0,0.0,0.0,0.20903980731964111,0.094007961452007294,0.0,2.0727835505516503e-21,0.094007961452007294,0.025000000000000001,0.040000000000000001,0.14000000000000001,0.29999999999999999,0.80000000000000004,1
16:52:01.179,-1.3699512481689453,-1.0921289920806885,-10.461445808410645,0.16058862209320068,0.017843179404735565,-0.34328147768974304,0.015723403543233871,-0.051005061715841293,0.0,0.0,0.17634770274162292,0.38852739334106445,0.0,0.0,0.0,0.20903980731964111,0.094007961452007294,0.0,2.0727835505516503e-21,0.094007961452007294,0.025000000000000001,0.040000000000000001,0.14000000000000001,0.29999999999999999,0.80000000000000004,1
16:52:01.230,-1.3699512481689453,-1.0921289920806885,-10.461445808410645,0.16058862209320068,0.017843179404735565,-0.34328147768974304,0.015723403543233871,-0.051005061715841293,0.0,0.0,0.17634770274162292,0.38852739334106445,0.0,0.0,0.0,0.20903980731964111,0.094007961452007294,0.0,2.0727835505516503e-21,0.094007961452007294,0.025000000000000001,0.040000000000000001,0.14000000000000001,0.29999999999999999,0.80000000000000004,1
16:52:01.274,-1.3699512481689453,-1.0921289920806885,-10.461445808410645,0.16058862209320068,0.017843179404735565,-0.34328147768974304,0.015723403543233871,-0.051005061715841293,0.0,0.0,0.17634770274162292,0.38852739334106445,0.0,0.0,0.0,0.20903980731964111,0.094007961452007294,0.0,2.0727835505516503e-21,0.094007961452007294,0.025000000000000001,0.040000000000000001,0.14000000000000001,0.29999999999999999,0.80000000000000004,1
16:52:01.353,-1.3699512481689453,-1.0921289920806885,-10.461445808410645,0.16058862209320068,0.017843179404735565,-0.34328147768974304,0.015723403543233871,0.087628670036792755,0.0,0.0,0.17634770274162292,0.30037146806716919,0.34773993492126465,0.0,0.0,0.20903980731964111,0.094007961452007294,0.0,2.0727835505516503e-21,0.094007961452007294,0.025000000000000001,0.040000000000000001,0.14000000000000001,0.29999999999999999,0.80000000000000004,1
16:52:01.383,3.1518459320068359,-0.31614258885383606,-6.8210158348083496,-0.16298545897006989,-0.68097031116485596,-0.10253170132637024,0.15358990430831909,0.087628670036792755,0.59542399644851685,0.4249424934387207,0.24434509873390198,0.30037146806716919,0.34773993492126465,2.0441768169403076,0.4002959132194519,0.92174446582794189,0.094007961452007294,0.0,2.0727835505516503e-21,0.094007961452007294,0.025000000000000001,0.040000000000000001,0.14000000000000001,0.29999999999999999,0.80000000000000004,0
16:52:01.431,3.1518459320068359,-0.31614258885383606,-6.8210158348083496,-0.16298545897006989,-0.68097031116485596,-0.10253170132637024,0.15358990430831909,0.087628670036792755,0.59542399644851685,0.4249424934387207,0.24434509873390198,0.30037146806716919,0.34773993492126465,2.0441768169403076,0.4002959132194519,0.92174446582794189,0.094007961452007294,0.0,2.0727835505516503e-21,0.094007961452007294,0.025000000000000001,0.040000000000000001,0.14000000000000001,0.29999999999999999,0.80000000000000004,0
16:52:01.477,3.1518459320068359,-0.31614258885383606,-6.8210158348083496,-0.16298545897006989,-0.68097031116485596,-0.10253170132637024,0.15358990430831909,0.087628670036792755,0.59542399644851685,0.4249424934387207,0.24434509873390198,0.30037146806716919,0.34773993492126465,2.0441768169403076,0.4002959132194519,0.92174446582794189,0.094007961452007294,0.0,2.0727835505516503e-21,0.094007961452007294,0.025000000000000001,0.040000000000000001,0.14000000000000001,0.29999999999999999,0.80000000000000004,0
16:52:01.527,3.1518459320068359,-0.31614258885383606,-6.8210158348083496,-0.16298545897006989,-0.68097031116485596,-0.10253170132637024,0.15358990430831909,0.087628670036792755,0.59542399644851685,0.4249424934387207,0.24434509873390198,0.30037146806716919,0.34773993492126465,2.0441768169403076,0.4002959132194519,0.92174446582794189,0.094007961452007294,0.0,2.0727835505516503e-21,0.094007961452007294,0.025000000000000001,0.040000000000000001,0.14000000000000001,0.29999999999999999,0.80000000000000004,0
16:52:01.585,3.1518459320068359,-0.31614258885383606,-6.8210158348083496,-0.16298545897006989,-0.68097031116485596,-0.10253170132637024,0.15358990430831909,0.087628670036792755,0.59542399644851685,0.4249424934387207,0.24434509873390198,0.30037146806716919,0.34773993492126465,2.0441768169403076,0.4002959132194519,0.92174446582794189,0.094007961452007294,0.0,2.0727835505516503e-21,0.094007961452007294,0.025000000000000001,0.040000000000000001,0.14000000000000001,0.29999999999999999,0.80000000000000004,0
16:52:01.649,3.1518459320068359,-0.31614258885383606,-6.8210158348083496,-0.16298545897006989,-0.68097031116485596,-0.10253170132637024,0.15358990430831909,0.087628670036792755,0.59542399644851685,0.4249424934387207,0.24434509873390198,0.30037146806716919,0.34773993492126465,2.0441768169403076,0.4002959132194519,0.92174446582794189,0.094007961452007294,0.0,2.0727835505516503e-21,0.094007961452007294,0.025000000000000001,0.040000000000000001,0.14000000000000001,0.29999999999999999,0.80000000000000004,0
16:52:01.693,3.1518459320068359,0.28740236163139343,-6.8210158348083496,0.11318434774875641,-0.27270770072937012,-0.38962048292160034,0.15358990430831909,-0.049279388040304184,0.0,0.0,1.6646175384521484,0.0,0.21853822469711304,2.0441768169403076,1.1578049659729004,0.92174446582794189,0.094007961452007294,0.0,2.0727835505516503e-21,0.094007961452007294,0.025000000000000001,0.040000000000000001,0.14000000000000001,0.29999999999999999,0.80000000000000004,0
16:52:01.732,0.3544628918170929,0.28740236163139343,-10.547666549682617,0.11318434774875641,-0.27270770072937012,-0.38962048292160034,-0.0049851578660309315,-0.049279388040304184,0.0,0.0,1.6646175384521484,0.0,0.21853822469711304,0.52508890628814697,1.1578049659729004,0.0012482384918257594,0.094007961452007294,0.0,2.0727835505516503e-21,0.094007961452007294,0.025000000000000001,0.040000000000000001,0.14000000000000001,0.29999999999999999,0.80000000000000004,1
16:52:01.786,0.3544628918170929,0.28740236163139343,-10.547666549682617,0.11318434774875641,-0.27270770072937012,-0.38962048292160034,-0.0049851578660309315,-0.049279388040304184,0.0,0.0,1.6646175384521484,0.0,0.21853822469711304,0.52508890628814697,1.1578049659729004,0.0012482384918257594,0.094007961452007294,0.0,2.0727835505516503e-21,0.094007961452007294,0.025000000000000001,0.040000000000000001,0.14000000000000001,0.29999999999999999,0.80000000000000004,1
16:52:01.831,0.3544628918170929,0.28740236163139343,-10.547666549682617,0.11318434774875641,-0.27270770072937012,-0.38962048292160034,-0.0049851578660309315,-0.049279388040304184,0.0,0.0,1.6646175384521484,0.0,0.21853822469711304,0.52508890628814697,1.1578049659729004,0.0012482384918257594,0.094007961452007294,0.0,2.0727835505516503e-21,0.094007961452007294,0.025000000000000001,0.040000000000000001,0.14000000000000001,0.29999999999999999,0.80000000000000004,1
16:52:01.883,0.3544628918170929,0.28740236163139343,-10.547666549682617,0.11318434774875641,-0.27270770072937012,-0.38962048292160034,-0.0049851578660309315,-0.049279388040304184,0.0,0.0,1.6646175384521484,0.0,0.21853822469711304,0.52508890628814697,1.1578049659729004,0.0012482384918257594,0.094007961452007294,0.0,2.0727835505516503e-21,0.094007961452007294,0.025000000000000001,0.040000000000000001,0.14000000000000001,0.29999999999999999,0.80000000000000004,1
16:52:01.934,0.3544628918170929,0.28740236163139343,-10.547666549682617,0.11318434774875641,-0.27270770072937012,-0.38962048292160034,-0.0049851578660309315,-0.049279388040304184,0.0,0.0,1.6646175384521484,0.0,0.21853822469711304,0.52508890628814697,1.1578049659729004,0.0012482384918257594,0.094007961452007294,0.0,2.0727835505516503e-21,0.094007961452007294,0.025000000000000001,0.040000000000000001,0.14000000000000001,0.29999999999999999,0.80000000000000004,1
16:52:02.023,0.3544628918170929,0.28740236163139343,-10.547666549682617,0.11318434774875641,-0.27270770072937012,-0.38962048292160034,-0.0049851578660309315,-0.049279388040304184,0.0,0.0,1.6646175384521484,0.0,0.21853822469711304,0.52508890628814697,1.1578049659729004,0.0012482384918257594,0.094007961452007294,0.0,2.0727835505516503e-21,0.094007961452007294,0.025000000000000001,0.040000000000000001,0.14000000000000001,0.29999999999999999,0.80000000000000004,1
16:52:02.058,5.7384672164916992,2.2417383193969727,-7.2521195411682129,0.47697216272354126,0.23009711503982544,0.034887410700321198,0.046019729226827621,0.10181791335344315,0.029065215960144997,0.18411223590373993,0.0026060407981276512,1.7340555191040039,0.0,0.0,0.0084081124514341354,0.0026482744142413139,0.094007961452007294,0.0,2.0727835505516503e-21,0.094007961452007294,0.025000000000000001,0.040000000000000001,0.14000000000000001,0.29999999999999999,0.80000000000000004,1
16:52:02.092,5.7384672164916992,2.2417383193969727,-7.2521195411682129,0.47697216272354126,0.23009711503982544,0.034887410700321198,0.046019729226827621,0.10181791335344315,0.029065215960144997,0.18411223590373993,0.0026060407981276512,1.7340555191040039,0.0,0.0,0.0084081124514341354,0.0026482744142413139,0.094007961452007294,0.0,2.0727835505516503e-21,0.094007961452007294,0.025000000000000001,0.040000000000000001,0.14000000000000001,0.29999999999999999,0.80000000000000004,1
16:52:02.150,5.7384672164916992,2.2417383193969727,-7.2521195411682129,0.47697216272354126,0.23009711503982544,0.034887410700321198,0.046019729226827621,0.10181791335344315,0.029065215960144997,0.18411223590373993,0.0026060407981276512,1.7340555191040039,0.0,0.0,0.0084081124514341354,0.0026482744142413139,0.094007961452007294,3.2677984762585766e-08,2.0727835505516503e-21,0.094007961452012984,0.025000000000000001,0.040000000000000001,0.14000000000000001,0.29999999999999999,0.80000000000000004,1
16:52:02.194,5.7384672164916992,2.2417383193969727,-7.2521195411682129,0.47697216272354126,0.23009711503982544,0.034887410700321198,0.046019729226827621,0.10181791335344315,0.029065215960144997,0.18411223590373993,0.0026060407981276512,1.7340555191040039,0.0,0.0,0.0084081124514341354,0.0026482744142413139,0.094007961452007294,3.2677984762585766e-08,2.0727835505516503e-21,0.094007961452012984,0.025000000000000001,0.040000000000000001,0.14000000000000001,0.29999999999999999,0.80000000000000004,1
16:52:02.247,5.7384672164916992,2.2417383193969727,-7.2521195411682129,0.47697216272354126,0.23009711503982544,0.034887410700321198,0.046019729226827621,0.10181791335344315,0.029065215960144997,0.18411223590373993,0.0026060407981276512,1.7340555191040039,0.0,0.0,0.0084081124514341354,0.0026482744142413139,0.094007961452007294,3.2677984762585766e-08,2.0727835505516503e-21,0.094007961452012984,0.025000000000000001,0.040000000000000001,0.14000000000000001,0.29999999999999999,0.80000000000000004,1
16:52:02.293,5.7384672164916992,2.2417383193969727,-7.2521195411682129,0.47697216272354126,0.23009711503982544,0.034887410700321198,0.046019729226827621,0.10181791335344315,0.029065215960144997,0.18411223590373993,0.0026060407981276512,1.7340555191040039,0.0,0.0,0.0084081124514341354,0.0026482744142413139,0.094007961452007294,3.2677984762585766e-08,2.0727835505516503e-21,0.094007961452012984,0.025000000000000001,0.040000000000000001,0.14000000000000001,0.29999999999999999,0.80000000000000004,1
16:52:02.372,5.7384672164916992,3.3913478851318359,-7.2521195411682129,-0.155262291431427,-0.68017137050628662,0.1853560209274292,0.046019729226827621,0.1046941950917244,0.91967350244522095,0.082633420825004578,1.4417281150817871,0.0,0.0,0.0,0.083937674760818481,0.0026482744142413139,0.094007961452007294,3.2677984762585766e-08,2.0727835505516503e-21,0.094007961452012984,0.025000000000000001,0.040000000000000001,0.14000000000000001,0.29999999999999999,0.80000000000000004,1
16:52:02.397,-0.82388675212860107,3.3913478851318359,-14.341377258300781,-0.155262291431427,-0.68017137050628662,0.1853560209274292,0.055607017129659653,0.1046941950917244,0.91967350244522095,0.082633420825004578,1.4417281150817871,0.0,0.0,0.0,0.083937674760818481,0.0062058600597083569,0.094007961452007294,3.2677984762585766e-08,2.0727835505516503e-21,0.094007961452012984,0.025000000000000001,0.040000000000000001,0.14000000000000001,0.29999999999999999,0.80000000000000004,1
16:52:02.452,-0.82388675212860107,3.3913478851318359,-14.341377258300781,-0.155262291431427,-0.68017137050628662,0.1853560209274292,0.055607017129659653,0.1046941950917244,0.91967350244522095,0.082633420825004578,1.4417281150817871,0.0,0.0,0.0,0.083937674760818481,0.0062058600597083569,0.094007961452007294,3.2677984762585766e-08,2.0727835505516503e-21,0.094007961452012984,0.025000000000000001,0.040000000000000001,0.14000000000000001,0.29999999999999999,0.80000000000000004,1
16:52:02.494,-0.82388675212860107,3.3913478851318359,-14.341377258300781,-0.155262291431427,-0.68017137050628662,0.1853560209274292,0.055607017129659653,0.1046941950917244,0.91967350244522095,0.082633420825004578,1.4417281150817871,0.0,0.0,0.0,0.083937674760818481,0.0062058600597083569,0.094007961452007294,3.2677984762585766e-08,2.0727835505516503e-21,0.094007961452012984,0.025000000000000001,0.040000000000000001,0.14000000000000001,0.29999999999999999,0.80000000000000004,1
16:52:02.551,-0.82388675212860107,3.3913478851318359,-14.341377258300781,-0.155262291431427,-0.68017137050628662,0.1853560209274292,0.055607017129659653,0.1046941950917244,0.91967350244522095,0.082633420825004578,1.4417281150817871,0.0,0.0,0.0,0.083937674760818481,0.0062058600597083569,0.094007961452007294,3.2677984762585766e-08,2.0727835505516503e-21,0.094007961452012984,0.025000000000000001,0.040000000000000001,0.14000000000000001,0.29999999999999999,0.80000000000000004,1
16:52:02.591,-0.82388675212860107,3.3913478851318359,-14.341377258300781,-0.155262291431427,-0.68017137050628662,0.1853560209274292,0.055607017129659653,0.1046941950917244,0.91967350244522095,0.082633420825004578,1.4417281150817871,0.0,0.0,0.0,0.083937674760818481,0.0062058600597083569,0.094007894396781921,-4.9016978920235488e-08,2.0727835505516503e-21,0.094007894396794703,0.025000000000000001,0.040000000000000001,0.14000000000000001,0.29999999999999999,0.80000000000000004,1
16:52:02.694,-0.82388675212860107,3.3913478851318359,-14.341377258300781,-0.155262291431427,-0.68017137050628662,0.1853560209274292,0.055607017129659653,0.1046941950917244,0.91967350244522095,0.082633420825004578,1.4417281150817871,0.0,0.0,0.0,0.083937674760818481,0.0062058600597083569,0.094007894396781921,-4.9016978920235488e-08,2.0727835505516503e-21,0.094007894396794703,0.025000000000000001,0.040000000000000001,0.14000000000000001,0.29999999999999999,0.80000000000000004,1
16:52:02.729,0.9867480993270874,0.67060548067092896,-1.0633887052536011,0.39468047022819519,-0.029294772073626518,0.68656295537948608,0.055607017129659653,0.071138210594654083,0.026751015335321426,0.0,1.1816903352737427,0.0,0.0,0.0,0.031549021601676941,0.0017190908547490835,0.094007894396781921,-4.9016978920235488e-08,2.0727835505516503e-21,0.094007894396794703,0.025000000000000001,0.040000000000000001,0.14000000000000001,0.29999999999999999,0.80000000000000004,1
16:52:02.768,0.9867480993270874,0.67060548067092896,-1.0633887052536011,0.39468047022819519,-0.029294772073626518,0.68656295537948608,-0.067303009331226349,0.071138210594654083,0.026751015335321426,0.0,1.1816903352737427,0.0,0.0,0.0,0.031549021601676941,0.0017190908547490835,0.094007894396781921,-4.9016978920235488e-08,2.0727835505516503e-21,0.094007894396794703,0.025000000000000001,0.040000000000000001,0.14000000000000001,0.29999999999999999,0.80000000000000004,1
16:52:02.821,0.9867480993270874,0.67060548067092896,-1.0633887052536011,0.39468047022819519,-0.029294772073626518,0.68656295537948608,-0.067303009331226349,0.071138210594654083,0.026751015335321426,0.0,1.1816903352737427,0.0,0.0,0.0,0.031549021601676941,0.0017190908547490835,0.094007894396781921,-4.9016978920235488e-08,2.0727835505516503e-21,0.094007894396794703,0.025000000000000001,0.040000000000000001,0.14000000000000001,0.29999999999999999,0.80000000000000004,1
16:52:02.865,0.9867480993270874,0.67060548067092896,-1.0633887052536011,0.39468047022819519,-0.029294772073626518,0.68656295537948608,-0.067303009331226349,0.071138210594654083,0.026751015335321426,0.0,1.1816903352737427,0.0,0.0,0.0,0.031549021601676941,0.0017190908547490835,0.094007894396781921,-4.9016978920235488e-08,2.0727835505516503e-21,0.094007894396794703,0.025000000000000001,0.040000000000000001,0.14000000000000001,0.29999999999999999,0.80000000000000004,1
16:52:02.933,0.9867480993270874,0.67060548067092896,-1.0633887052536011,0.39468047022819519,-0.029294772073626518,0.68656295537948608,-0.067303009331226349,0.071138210594654083,0.026751015335321426,0.0,1.1816903352737427,0.0,0.0,0.0,0.031549021601676941,0.0017190908547490835,0.094007894396781921,-4.9016978920235488e-08,2.0727835505516503e-21,0.094007894396794703,0.025000000000000001,0.040000000000000001,0.14000000000000001,0.29999999999999999,0.80000000000000004,1
16:52:02.964,0.9867480993270874,0.67060548067092896,-1.0633887052536011,0.39468047022819519,-0.029294772073626518,0.68656295537948608,-0.067303009331226349,0.071138210594654083,0.026751015335321426,0.0,1.1816903352737427,0.0,0.0,0.0,0.031549021601676941,0.0017190908547490835,0.094007894396781921,-4.9016978920235488e-08,2.0727835505516503e-21,0.094007894396794703,0.025000000000000001,0.040000000000000001,0.14000000000000001,0.29999999999999999,0.80000000000000004,1
16:52:03.049,0.9867480993270874,0.67060548067092896,-1.0633887052536011,0.25193503499031067,-0.073236934840679169,0.52517539262771606,-0.067303009331226349,0.06385166198015213,0.026751015335321426,0.0,1.1816903352737427,1.6314557790756226,0.084265530109405518,0.0,0.0,0.0017190908547490835,0.094007961452007294,-1.6338992381292883e-08,2.0727835505516503e-21,0.094007961452008709,0.025000000000000001,0.040000000000000001,0.14000000000000001,0.29999999999999999,0.80000000000000004,1
16:52:03.065,1.9064356088638306,-1.8776954412460327,-9.7716798782348633,0.25193503499031067,-0.073236934840679169,0.52517539262771606,0.13288134336471558,0.06385166198015213,0.0,0.69416141510009766,0.0017890790477395058,1.6314557790756226,0.084265530109405518,2.9990229606628418,0.0,1.1828042268753052,0.094007961452007294,-1.6338992381292883e-08,2.0727835505516503e-21,0.094007961452008709,0.025000000000000001,0.040000000000000001,0.14000000000000001,0.29999999999999999,0.80000000000000004,1
16:52:03.121,1.9064356088638306,-1.8776954412460327,-9.7716798782348633,0.25193503499031067,-0.073236934840679169,0.52517539262771606,0.13288134336471558,0.06385166198015213,0.0,0.69416141510009766,0.0017890790477395058,1.6314557790756226,0.084265530109405518,2.9990229606628418,0.0,1.1828042268753052,0.094007961452007294,-1.6338992381292883e-08,2.0727835505516503e-21,0.094007961452008709,0.025000000000000001,0.040000000000000001,0.14000000000000001,0.29999999999999999,0.80000000000000004,1
16:52:03.174,1.9064356088638306,-1.8776954412460327,-9.7716798782348633,0.25193503499031067,-0.073236934840679169,0.52517539262771606,0.13288134336471558,0.06385166198015213,0.0,0.69416141510009766,0.0017890790477395058,1.6314557790756226,0.084265530109405518,2.9990229606628418,0.0,1.1828042268753052,0.094007961452007294,-1.6338992381292883e-08,2.0727835505516503e-21,0.094007961452008709,0.025000000000000001,0.040000000000000001,0.14000000000000001,0.29999999999999999,0.80000000000000004,1
16:52:03.228,1.9064356088638306,-1.8776954412460327,-9.7716798782348633,0.25193503499031067,-0.073236934840679169,0.52517539262771606,0.13288134336471558,0.06385166198015213,0.0,0.69416141510009766,0.0017890790477395058,1.6314557790756226,0.084265530109405518,2.9990229606628418,0.0,1.1828042268753052,0.094007961452007294,-1.6338992381292883e-08,2.0727835505516503e-21,0.094007961452008709,0.025000000000000001,0.040000000000000001,0.14000000000000001,0.29999999999999999,0.80000000000000004,1
16:52:03.270,1.9064356088638306,-1.8776954412460327,-9.7716798782348633,0.25193503499031067,-0.073236934840679169,0.52517539262771606,0.13288134336471558,0.06385166198015213,0.0,0.69416141510009766,0.0017890790477395058,1.6314557790756226,0.084265530109405518,2.9990229606628418,0.0,1.1828042268753052,0.094007961452007294,-1.6338992381292883e-08,2.0727835505516503e-21,0.094007961452008709,0.025000000000000001,0.040000000000000001,0.14000000000000001,0.29999999999999999,0.80000000000000004,1
16:52:03.330,1.9064356088638306,-1.8776954412460327,-9.7716798782348633,0.25193503499031067,-0.073236934840679169,0.52517539262771606,0.13288134336471558,0.06385166198015213,0.0,0.69416141510009766,0.0017890790477395058,1.6314557790756226,0.084265530109405518,2.9990229606628418,0.0,1.1828042268753052,0.094007961452007294,-1.6338992381292883e-08,2.0727835505516503e-21,0.094007961452008709,0.025000000000000001,0.040000000000000001,0.14000000000000001,0.29999999999999999,0.80000000000000004,1
16:52:03.387,1.9064356088638306,-1.8776954412460327,-9.7716798782348633,-0.84395575523376465,-0.16857810318470001,0.70334082841873169,0.13288134336471558,0.045060459524393082,0.0,0.0,0.036107216030359268,0.0,0.14399802684783936,2.9990229606628418,2.2461221218109131,1.1828042268753052,0.094007961452007294,-1.6338992381292883e-08,2.0727835505516503e-21,0.094007961452008709,0.025000000000000001,0.040000000000000001,0.14000000000000001,0.29999999999999999,0.80000000000000004,1
16:52:03.424,-1.2837305068969727,-0.77598637342453003,-16.017890930175781,-0.84395575523376465,-0.16857810318470001,0.70334082841873169,-0.025502029806375504,0.045060459524393082,0.0,0.0,0.036107216030359268,0.0,0.14399802684783936,0.0,2.2461221218109131,0.0033080149441957474,0.094007961452007294,-1.6338992381292883e-08,2.0727835505516503e-21,0.094007961452008709,0.025000000000000001,0.040000000000000001,0.14000000000000001,0.29999999999999999,0.80000000000000004,1
16:52:03.482,-1.2837305068969727,-0.77598637342453003,-16.017890930175781,-0.84395575523376465,-0.16857810318470001,0.70334082841873169,-0.025502029806375504,0.045060459524393082,0.0,0.0,0.036107216030359268,0.0,0.14399802684783936,0.0,2.2461221218109131,0.0033080149441957474,0.094007961452007294,-1.6338992381292883e-08,2.0727835505516503e-21,0.094007961452008709,0.025000000000000001,0.040000000000000001,0.14000000000000001,0.29999999999999999,0.80000000000000004,1
16:52:03.527,-1.2837305068969727,-0.77598637342453003,-16.017890930175781,-0.84395575523376465,-0.16857810318470001,0.70334082841873169,-0.025502029806375504,0.045060459524393082,0.0,0.0,0.036107216030359268,0.0,0.14399802684783936,0.0,2.2461221218109131,0.0033080149441957474,0.094007961452007294,-1.6338992381292883e-08,2.0727835505516503e-21,0.094007961452008709,0.025000000000000001,0.040000000000000001,0.14000000000000001,0.29999999999999999,0.80000000000000004,1
16:52:03.572,-1.2837305068969727,-0.77598637342453003,-16.017890930175781,-0.84395575523376465,-0.16857810318470001,0.70334082841873169,-0.025502029806375504,0.045060459524393082,0.0,0.0,0.036107216030359268,0.0,0.14399802684783936,0.0,2.2461221218109131,0.0033080149441957474,0.094007961452007294,-1.6338992381292883e-08,2.0727835505516503e-21,0.094007961452008709,0.025000000000000001,0.040000000000000001,0.14000000000000001,0.29999999999999999,0.80000000000000004,1
16:52:03.625,-1.2837305068969727,-0.77598637342453003,-16.017890930175781,-0.84395575523376465,-0.16857810318470001,0.70334082841873169,-0.025502029806375504,0.045060459524393082,0.0,0.0,0.036107216030359268,0.0,0.14399802684783936,0.0,2.2461221218109131,0.0033080149441957474,0.094007961452007294,-1.6338992381292883e-08,2.0727835505516503e-21,0.094007961452008709,0.025000000000000001,0.040000000000000001,0.14000000000000001,0.29999999999999999,0.80000000000000004,1
16:52:03.694,-1.2837305068969727,-0.77598637342453003,-16.017890930175781,-0.84395575523376465,-0.16857810318470001,0.70334082841873169,-0.025502029806375504,0.045060459524393082,0.0,0.0,0.036107216030359268,0.0,0.14399802684783936,0.0,2.2461221218109131,0.0033080149441957474,0.094007961452007294,-1.6338992381292883e-08,2.0727835505516503e-21,0.094007961452008709,0.025000000000000001,0.040000000000000001,0.14000000000000001,0.29999999999999999,0.80000000000000004,1
16:52:03.726,1.8393750190734863,-0.90052735805511475,-8.4496288299560547,0.79468727111816406,-0.31185618042945862,0.19228023290634155,-0.038732830435037613,0.053689304739236832,0.0,0.0,0.014854473061859608,0.54349726438522339,0.12710677087306976,1.0117621421813965,0.69953435659408569,0.82621443271636963,0.094007961452007294,-1.6338992381292883e-08,2.0727835505516503e-21,0.094007961452008709,0.025000000000000001,0.040000000000000001,0.14000000000000001,0.29999999999999999,0.80000000000000004,1
16:52:03.780,1.8393750190734863,-0.90052735805511475,-8.4496288299560547,0.79468727111816406,-0.31185618042945862,0.19228023290634155,-0.038732830435037613,0.053689304739236832,0.0,0.0,0.014854473061859608,0.54349726438522339,0.12710677087306976,1.0117621421813965,0.69953435659408569,0.82621443271636963,0.094007961452007294,-1.6338992381292883e-08,2.0727835505516503e-21,0.094007961452008709,0.025000000000000001,0.040000000000000001,0.14000000000000001,0.29999999999999999,0.80000000000000004,1
16:52:03.824,1.8393750190734863,-0.90052735805511475,-8.4496288299560547,0.79468727111816406,-0.31185618042945862,0.19228023290634155,-0.038732830435037613,0.053689304739236832,0.0,0.0,0.014854473061859608,0.54349726438522339,0.12710677087306976,1.0117621421813965,0.69953435659408569,0.82621443271636963,0.094007961452007294,-1.6338992381292883e-08,2.0727835505516503e-21,0.094007961452008709,0.025000000000000001,0.040000000000000001,0.14000000000000001,0.29999999999999999,0.80000000000000004,1
16:52:03.879,1.8393750190734863,-0.90052735805511475,-8.4496288299560547,0.79468727111816406,-0.31185618042945862,0.19228023290634155,-0.038732830435037613,0.053689304739236832,0.0,0.0,0.014854473061859608,0.54349726438522339,0.12710677087306976,1.0117621421813965,0.69953435659408569,0.82621443271636963,0.094007961452007294,-1.6338992381292883e-08,2.0727835505516503e-21,0.094007961452008709,0.025000000000000001,0.040000000000000001,0.14000000000000001,0.29999999999999999,0.80000000000000004,1
