timestamp,accel_x,accel_y,accel_z,gyro_x,gyro_y,gyro_z,angle_x,angle_y,lfoot_fl,lfoot_fr,lfoot_rl,lfoot_rr,rfoot_fl,rfoot_fr,rfoot_rl,rfoot_rr,vx,vy,wz,vtotal,StepHeight,MaxStepX,MaxStepY,MaxStepTheta,Frequency,stable
18:39:26.509,0.8526269793510437,0.17244140803813934,-9.9728612899780273,-0.001065264455974102,-0.0013315805699676275,-0.00026631611399352551,-0.013997379690408707,0.045827213674783707,0.15558986365795135,0.12855702638626099,0.47776660323143005,0.49939459562301636,0.0102083720266819,0.0,1.0566780567169189,0.75809067487716675,0.0,0.0,0.0,0.0,0.025000000000000001,0.040000000000000001,0.29999999999999999,0.29999999999999999,0.80000000000000004,1
18:39:26.563,0.8526269793510437,0.17244140803813934,-9.9728612899780273,-0.001065264455974102,-0.0013315805699676275,-0.00026631611399352551,-0.013997379690408707,0.045827213674783707,0.15558986365795135,0.12855702638626099,0.47776660323143005,0.49939459562301636,0.0102083720266819,0.0,1.0566780567169189,0.75809067487716675,0.0,0.0,0.0,0.0,0.025000000000000001,0.040000000000000001,0.29999999999999999,0.29999999999999999,0.80000000000000004,1
18:39:26.606,0.8526269793510437,0.17244140803813934,-9.9728612899780273,-0.001065264455974102,-0.0013315805699676275,-0.00026631611399352551,-0.013997379690408707,0.045827213674783707,0.15558986365795135,0.12855702638626099,0.47776660323143005,0.49939459562301636,0.0102083720266819,0.0,1.0566780567169189,0.75809067487716675,0.0,0.0,0.0,0.0,0.025000000000000001,0.040000000000000001,0.29999999999999999,0.29999999999999999,0.80000000000000004,1
18:39:26.660,0.8526269793510437,0.17244140803813934,-9.9728612899780273,-0.001065264455974102,-0.0013315805699676275,-0.00026631611399352551,-0.013997379690408707,0.045827213674783707,0.15558986365795135,0.12855702638626099,0.47776660323143005,0.49939459562301636,0.0102083720266819,0.0,1.0566780567169189,0.75809067487716675,0.0,0.0,0.0,0.0,0.025000000000000001,0.040000000000000001,0.29999999999999999,0.29999999999999999,0.80000000000000004,1
18:39:26.737,0.8526269793510437,0.17244140803813934,-9.9728612899780273,-0.001065264455974102,0.031691618263721466,-0.00026631611399352551,-0.013997379690408707,0.044677082449197769,0.15558986365795135,0.12855702638626099,0.47776660323143005,0.51395165920257568,0.0,0.0,1.0980100631713867,0.75809067487716675,0.0,0.0,0.0,0.0,0.025000000000000001,0.040000000000000001,0.29999999999999999,0.29999999999999999,0.80000000000000004,1
18:39:26.766,0.43110352754592896,-0.067060552537441254,-9.9728612899780273,-0.0013315805699676275,0.031691618263721466,0.017310546711087227,-0.012846771627664566,0.044677082449197769,0.15673340857028961,0.10498262196779251,0.41339710354804993,0.51395165920257568,0.0,0.0,1.0980100631713867,0.74995023012161255,0.0,0.0,0.0,0.0,0.025000000000000001,0.040000000000000001,0.29999999999999999,0.29999999999999999,0.80000000000000004,1
18:39:26.807,0.43110352754592896,-0.067060552537441254,-9.9728612899780273,-0.0013315805699676275,0.031691618263721466,0.017310546711087227,-0.012846771627664566,0.044677082449197769,0.15673340857028961,0.10498262196779251,0.41339710354804993,0.51395165920257568,0.0,0.0,1.0980100631713867,0.74995023012161255,0.0,0.0,0.0,0.0,0.025000000000000001,0.040000000000000001,0.29999999999999999,0.29999999999999999,0.80000000000000004,1
18:39:26.862,0.43110352754592896,-0.067060552537441254,-9.9728612899780273,-0.0013315805699676275,0.031691618263721466,0.017310546711087227,-0.012846771627664566,0.044677082449197769,0.15673340857028961,0.10498262196779251,0.41339710354804993,0.51395165920257568,0.0,0.0,1.0980100631713867,0.74995023012161255,0.0,0.0,0.0,0.0,0.025000000000000001,0.040000000000000001,0.29999999999999999,0.29999999999999999,0.80000000000000004,1
18:39:26.906,0.43110352754592896,-0.067060552537441254,-9.9728612899780273,-0.0013315805699676275,0.031691618263721466,0.017310546711087227,-0.012846771627664566,0.044677082449197769,0.15673340857028961,0.10498262196779251,0.41339710354804993,0.51395165920257568,0.0,0.0,1.0980100631713867,0.74995023012161255,0.0,0.0,0.0,0.0,0.025000000000000001,0.040000000000000001,0.29999999999999999,0.29999999999999999,0.80000000000000004,1
18:39:26.964,0.43110352754592896,-0.067060552537441254,-9.9728612899780273,-0.0013315805699676275,0.031691618263721466,0.017310546711087227,-0.012846771627664566,0.044677082449197769,0.15673340857028961,0.10498262196779251,0.41339710354804993,0.51395165920257568,0.0,0.0,1.0980100631713867,0.74995023012161255,0.0,0.0,0.0,0.0,0.025000000000000001,0.040000000000000001,0.29999999999999999,0.29999999999999999,0.80000000000000004,1
18:39:27.008,0.43110352754592896,-0.067060552537441254,-9.9728612899780273,-0.0013315805699676275,0.031691618263721466,0.017310546711087227,-0.012846771627664566,0.044677082449197769,0.15673340857028961,0.10498262196779251,0.41339710354804993,0.51395165920257568,0.0,0.0,1.0980100631713867,0.74995023012161255,0.0,0.0,0.0,0.0,0.025000000000000001,0.040000000000000001,0.29999999999999999,0.29999999999999999,0.80000000000000004,1
18:39:27.091,0.43110352754592896,0.18202149868011475,-9.9728612899780273,-0.030892670154571533,0.29055088758468628,0.14833807945251465,-0.012846771627664566,0.087628670036792755,0.0,0.32221096754074097,0.00090687064221128821,0.93186712265014648,0.070994384586811066,0.0,1.7875412702560425,0.74995023012161255,0.0,0.0,0.0,0.0,0.025000000000000001,0.040000000000000001,0.29999999999999999,0.29999999999999999,0.80000000000000004,1
18:39:27.108,1.1112891435623169,0.18202149868011475,-9.7812604904174805,-0.030892670154571533,0.29055088758468628,0.14833807945251465,-0.018024269491434097,0.087628670036792755,0.0,0.32221096754074097,0.00090687064221128821,0.93186712265014648,0.070994384586811066,0.0,1.7875412702560425,0.003743775887414813,0.0,0.0,0.0,0.0,0.025000000000000001,0.040000000000000001,0.29999999999999999,0.29999999999999999,0.80000000000000004,1
18:39:27.165,1.1112891435623169,0.18202149868011475,-9.7812604904174805,-0.030892670154571533,0.29055088758468628,0.14833807945251465,-0.018024269491434097,0.087628670036792755,0.0,0.32221096754074097,0.00090687064221128821,0.93186712265014648,0.070994384586811066,0.0,1.7875412702560425,0.003743775887414813,0.0,0.0,0.0,0.0,0.025000000000000001,0.040000000000000001,0.29999999999999999,0.29999999999999999,0.80000000000000004,1
18:39:27.213,1.1112891435623169,0.18202149868011475,-9.7812604904174805,-0.030892670154571533,0.29055088758468628,0.14833807945251465,-0.018024269491434097,0.087628670036792755,0.0,0.32221096754074097,0.00090687064221128821,0.93186712265014648,0.070994384586811066,0.0,1.7875412702560425,0.003743775887414813,0.0,0.0,0.0,0.0,0.025000000000000001,0.040000000000000001,0.29999999999999999,0.29999999999999999,0.80000000000000004,1
18:39:27.264,1.1112891435623169,0.18202149868011475,-9.7812604904174805,-0.030892670154571533,0.29055088758468628,0.14833807945251465,-0.018024269491434097,0.087628670036792755,0.0,0.32221096754074097,0.00090687064221128821,0.93186712265014648,0.070994384586811066,0.0,1.7875412702560425,0.003743775887414813,0.0,0.0,0.0,0.0,0.025000000000000001,0.040000000000000001,0.29999999999999999,0.29999999999999999,0.80000000000000004,1
18:39:27.311,1.1112891435623169,0.18202149868011475,-9.7812604904174805,-0.030892670154571533,0.29055088758468628,0.14833807945251465,-0.018024269491434097,0.087628670036792755,0.0,0.32221096754074097,0.00090687064221128821,0.93186712265014648,0.070994384586811066,0.0,1.7875412702560425,0.003743775887414813,0.0,0.0,0.0,0.0,0.025000000000000001,0.040000000000000001,0.29999999999999999,0.29999999999999999,0.80000000000000004,1
18:39:27.395,1.1112891435623169,0.18202149868011475,-9.7812604904174805,-0.030892670154571533,0.29055088758468628,0.14833807945251465,-0.018024269491434097,0.087628670036792755,0.0,0.32221096754074097,0.00090687064221128821,0.93186712265014648,0.070994384586811066,0.0,1.7875412702560425,0.003743775887414813,0.0,0.0,0.0,0.0,0.025000000000000001,0.040000000000000001,0.29999999999999999,0.29999999999999999,0.80000000000000004,1
18:39:27.430,3.7745509147644043,0.59396487474441528,-9.580078125,0.0034621094819158316,0.40240365266799927,0.05752427875995636,-0.018024269491434097,0.23527413606643677,0.0,0.83912688493728638,0.0017118554096668959,0.73160994052886963,0.37246417999267578,0.0,0.86339348554611206,0.003743775887414813,0.0,0.0,0.0,0.0,0.025000000000000001,0.040000000000000001,0.29999999999999999,0.29999999999999999,0.80000000000000004,1
18:39:27.468,3.7745509147644043,0.59396487474441528,-9.580078125,0.0034621094819158316,0.40240365266799927,0.05752427875995636,-0.032021824270486832,0.23527413606643677,0.0,0.83912688493728638,0.0017118554096668959,0.73160994052886963,0.37246417999267578,0.0,0.86339348554611206,0.0019985297694802284,0.0,0.0,0.0,0.0,0.025000000000000001,0.040000000000000001,0.29999999999999999,0.29999999999999999,0.80000000000000004,1
18:39:27.516,3.7745509147644043,0.59396487474441528,-9.580078125,0.0034621094819158316,0.40240365266799927,0.05752427875995636,-0.032021824270486832,0.23527413606643677,0.0,0.83912688493728638,0.0017118554096668959,0.73160994052886963,0.37246417999267578,0.0,0.86339348554611206,0.0019985297694802284,0.0,0.0,0.0,0.0,0.025000000000000001,0.040000000000000001,0.29999999999999999,0.29999999999999999,0.80000000000000004,1
18:39:27.567,3.7745509147644043,0.59396487474441528,-9.580078125,0.0034621094819158316,0.40240365266799927,0.05752427875995636,-0.032021824270486832,0.23527413606643677,0.0,0.83912688493728638,0.0017118554096668959,0.73160994052886963,0.37246417999267578,0.0,0.86339348554611206,0.0019985297694802284,0.0,0.0,0.0,0.0,0.025000000000000001,0.040000000000000001,0.29999999999999999,0.29999999999999999,0.80000000000000004,1
18:39:27.619,3.7745509147644043,0.59396487474441528,-9.580078125,0.0034621094819158316,0.40240365266799927,0.05752427875995636,-0.032021824270486832,0.23527413606643677,0.0,0.83912688493728638,0.0017118554096668959,0.73160994052886963,0.37246417999267578,0.0,0.86339348554611206,0.0019985297694802284,0.0,0.0,0.0,0.0,0.025000000000000001,0.040000000000000001,0.29999999999999999,0.29999999999999999,0.80000000000000004,1
18:39:27.671,3.7745509147644043,0.59396487474441528,-9.580078125,0.0034621094819158316,0.40240365266799927,0.05752427875995636,-0.032021824270486832,0.23527413606643677,0.0,0.83912688493728638,0.0017118554096668959,0.73160994052886963,0.37246417999267578,0.0,0.86339348554611206,0.0019985297694802284,0.0,0.0,0.0,0.0,0.025000000000000001,0.040000000000000001,0.29999999999999999,0.29999999999999999,0.80000000000000004,1
18:39:27.739,3.7745509147644043,0.59396487474441528,-9.580078125,0.0034621094819158316,0.40240365266799927,0.05752427875995636,-0.032021824270486832,0.23527413606643677,0.0,0.83912688493728638,0.0017118554096668959,0.73160994052886963,0.37246417999267578,0.0,0.86339348554611206,0.0019985297694802284,0.0,0.0,0.0,0.0,0.025000000000000001,0.040000000000000001,0.29999999999999999,0.29999999999999999,0.80000000000000004,1
18:39:27.767,3.3051271438598633,0.65144532918930054,-10.298583984375,-0.06311691552400589,-1.020789623260498,-0.028229508548974991,-0.0325968898832798,0.18963795900344849,0.0,0.97838109731674194,0.0041129039600491524,0.36249783635139465,0.41291001439094543,0.0,0.25980916619300842,0.0026482744142413139,0.0,0.0,-1.7965219119448063e-22,1.7965219119448063e-22,0.025000000000000001,0.040000000000000001,0.29999999999999999,0.29999999999999999,0.80000000000000004,1
18:39:27.818,3.3051271438598633,0.65144532918930054,-10.298583984375,-0.06311691552400589,-1.020789623260498,-0.028229508548974991,-0.0325968898832798,0.18963795900344849,0.0,0.97838109731674194,0.0041129039600491524,0.36249783635139465,0.41291001439094543,0.0,0.25980916619300842,0.0026482744142413139,0.0,0.0,-1.7965219119448063e-22,1.7965219119448063e-22,0.025000000000000001,0.040000000000000001,0.29999999999999999,0.29999999999999999,0.80000000000000004,1
18:39:27.868,3.3051271438598633,0.65144532918930054,-10.298583984375,-0.06311691552400589,-1.020789623260498,-0.028229508548974991,-0.0325968898832798,0.18963795900344849,0.0,0.97838109731674194,0.0041129039600491524,0.36249783635139465,0.41291001439094543,0.0,0.25980916619300842,0.0026482744142413139,0.0,0.0,-1.7965219119448063e-22,1.7965219119448063e-22,0.025000000000000001,0.040000000000000001,0.29999999999999999,0.29999999999999999,0.80000000000000004,1
18:39:27.919,3.3051271438598633,0.65144532918930054,-10.298583984375,-0.06311691552400589,-1.020789623260498,-0.028229508548974991,-0.0325968898832798,0.18963795900344849,0.0,0.97838109731674194,0.0041129039600491524,0.36249783635139465,0.41291001439094543,0.0,0.25980916619300842,0.0026482744142413139,0.0,0.0,-1.7965219119448063e-22,1.7965219119448063e-22,0.025000000000000001,0.040000000000000001,0.29999999999999999,0.29999999999999999,0.80000000000000004,1
18:39:27.967,3.3051271438598633,0.65144532918930054,-10.298583984375,-0.06311691552400589,-1.020789623260498,-0.028229508548974991,-0.0325968898832798,0.18963795900344849,0.0,0.97838109731674194,0.0041129039600491524,0.36249783635139465,0.41291001439094543,0.0,0.25980916619300842,0.0026482744142413139,0.0,0.0,-1.7965219119448063e-22,1.7965219119448063e-22,0.025000000000000001,0.040000000000000001,0.29999999999999999,0.29999999999999999,0.80000000000000004,1
18:39:28.024,3.3051271438598633,0.65144532918930054,-10.298583984375,-0.06311691552400589,-1.020789623260498,-0.028229508548974991,-0.0325968898832798,0.18963795900344849,0.0,0.97838109731674194,0.0041129039600491524,0.36249783635139465,0.41291001439094543,0.0,0.25980916619300842,0.0026482744142413139,0.0,0.0,-1.7965219119448063e-22,1.7965219119448063e-22,0.025000000000000001,0.040000000000000001,0.29999999999999999,0.29999999999999999,0.80000000000000004,1
18:39:28.081,3.3051271438598633,0.65144532918930054,-10.298583984375,-0.023702133446931839,0.10812434554100037,-0.028229508548974991,-0.0325968898832798,0.08724481612443924,0.0,0.97838109731674194,0.0041129039600491524,0.57050704956054688,0.36395108699798584,0.0,0.67018365859985352,0.0026482744142413139,0.0,0.0,-1.7965219119448063e-22,1.7965219119448063e-22,0.025000000000000001,0.040000000000000001,0.29999999999999999,0.29999999999999999,0.80000000000000004,1
18:39:28.116,0.82388675212860107,0.27782228589057922,-9.9058008193969727,-0.023702133446931839,0.10812434554100037,-0.018109496682882309,-0.033364120870828629,0.08724481612443924,0.0,0.86534959077835083,0.0031568720005452633,0.57050704956054688,0.36395108699798584,0.0,0.67018365859985352,0.0021389408502727747,0.0,0.0,-1.7965219119448063e-22,1.7965219119448063e-22,0.025000000000000001,0.040000000000000001,0.29999999999999999,0.29999999999999999,0.80000000000000004,1
18:39:28.167,0.82388675212860107,0.27782228589057922,-9.9058008193969727,-0.023702133446931839,0.10812434554100037,-0.018109496682882309,-0.033364120870828629,0.08724481612443924,0.0,0.86534959077835083,0.0031568720005452633,0.57050704956054688,0.36395108699798584,0.0,0.67018365859985352,0.0021389408502727747,0.0,0.0,-1.7965219119448063e-22,1.7965219119448063e-22,0.025000000000000001,0.040000000000000001,0.29999999999999999,0.29999999999999999,0.80000000000000004,1
18:39:28.218,0.82388675212860107,0.27782228589057922,-9.9058008193969727,-0.023702133446931839,0.10812434554100037,-0.018109496682882309,-0.033364120870828629,0.08724481612443924,0.0,0.86534959077835083,0.0031568720005452633,0.57050704956054688,0.36395108699798584,0.0,0.67018365859985352,0.0021389408502727747,0.0,0.0,-1.7965219119448063e-22,1.7965219119448063e-22,0.025000000000000001,0.040000000000000001,0.29999999999999999,0.29999999999999999,0.80000000000000004,1
18:39:28.265,0.82388675212860107,0.27782228589057922,-9.9058008193969727,-0.023702133446931839,0.10812434554100037,-0.018109496682882309,-0.033364120870828629,0.08724481612443924,0.0,0.86534959077835083,0.0031568720005452633,0.57050704956054688,0.36395108699798584,0.0,0.67018365859985352,0.0021389408502727747,0.0,0.0,-1.7965219119448063e-22,1.7965219119448063e-22,0.025000000000000001,0.040000000000000001,0.29999999999999999,0.29999999999999999,0.80000000000000004,1
18:39:28.318,0.82388675212860107,0.27782228589057922,-9.9058008193969727,-0.023702133446931839,0.10812434554100037,-0.018109496682882309,-0.033364120870828629,0.08724481612443924,0.0,0.86534959077835083,0.0031568720005452633,0.57050704956054688,0.36395108699798584,0.0,0.67018365859985352,0.0021389408502727747,0.0,0.0,-1.7965219119448063e-22,1.7965219119448063e-22,0.025000000000000001,0.040000000000000001,0.29999999999999999,0.29999999999999999,0.80000000000000004,1
18:39:28.400,0.82388675212860107,0.27782228589057922,-9.9058008193969727,-0.023702133446931839,0.10812434554100037,-0.018109496682882309,-0.033364120870828629,0.08724481612443924,0.0,0.86534959077835083,0.0031568720005452633,0.57050704956054688,0.36395108699798584,0.0,0.67018365859985352,0.0021389408502727747,0.036589004099369049,0.0044834613800048828,-1.3721232709950527e-18,0.036862672813153967,0.025000000000000001,0.040000000000000001,0.29999999999999999,0.29999999999999999,0.80000000000000004,1
18:39:28.423,0.82388675212860107,0.27782228589057922,-9.9058008193969727,-0.20213392376899719,0.016245283186435699,-0.018908444792032242,-0.033364120870828629,0.10507757216691971,0.0,0.86984008550643921,0.0037925555370748043,0.58118855953216553,0.40628018975257874,0.0,0.41874098777770996,0.0021389408502727747,0.036589004099369049,0.0044834613800048828,-1.3721232709950527e-18,0.036862672813153967,0.025000000000000001,0.040000000000000001,0.29999999999999999,0.29999999999999999,0.80000000000000004,1
18:39:28.473,1.3699512481689453,0.75682622194290161,-10.001602172851562,-0.20213392376899719,0.016245283186435699,-0.018908444792032242,-0.05714065209031105,0.10507757216691971,0.0,0.86984008550643921,0.0037925555370748043,0.58118855953216553,0.40628018975257874,0.0,0.41874098777770996,0.0023080396931618452,0.036589004099369049,0.0044834613800048828,-1.3721232709950527e-18,0.036862672813153967,0.025000000000000001,0.040000000000000001,0.29999999999999999,0.29999999999999999,0.80000000000000004,1
18:39:28.525,1.3699512481689453,0.75682622194290161,-10.001602172851562,-0.20213392376899719,0.016245283186435699,-0.018908444792032242,-0.05714065209031105,0.10507757216691971,0.0,0.86984008550643921,0.0037925555370748043,0.58118855953216553,0.40628018975257874,0.0,0.41874098777770996,0.0023080396931618452,0.036589004099369049,0.0044834613800048828,-1.3721232709950527e-18,0.036862672813153967,0.025000000000000001,0.040000000000000001,0.29999999999999999,0.29999999999999999,0.80000000000000004,1
18:39:28.575,1.3699512481689453,0.75682622194290161,-10.001602172851562,-0.20213392376899719,0.016245283186435699,-0.018908444792032242,-0.05714065209031105,0.10507757216691971,0.0,0.86984008550643921,0.0037925555370748043,0.58118855953216553,0.40628018975257874,0.0,0.41874098777770996,0.0023080396931618452,0.036589004099369049,0.0044834613800048828,-1.3721232709950527e-18,0.036862672813153967,0.025000000000000001,0.040000000000000001,0.29999999999999999,0.29999999999999999,0.80000000000000004,1
18:39:28.632,1.3699512481689453,0.75682622194290161,-10.001602172851562,-0.20213392376899719,0.016245283186435699,-0.018908444792032242,-0.05714065209031105,0.10507757216691971,0.0,0.86984008550643921,0.0037925555370748043,0.58118855953216553,0.40628018975257874,0.0,0.41874098777770996,0.0023080396931618452,0.036589004099369049,0.0044834613800048828,-1.3721232709950527e-18,0.036862672813153967,0.025000000000000001,0.040000000000000001,0.29999999999999999,0.29999999999999999,0.80000000000000004,1
18:39:28.669,1.3699512481689453,0.75682622194290161,-10.001602172851562,-0.20213392376899719,0.016245283186435699,-0.018908444792032242,-0.05714065209031105,0.10507757216691971,0.0,0.86984008550643921,0.0037925555370748043,0.58118855953216553,0.40628018975257874,0.0,0.41874098777770996,0.0023080396931618452,0.036589004099369049,0.0044834613800048828,-1.3721232709950527e-18,0.036862672813153967,0.025000000000000001,0.040000000000000001,0.29999999999999999,0.29999999999999999,0.80000000000000004,1
18:39:28.758,1.3699512481689453,0.75682622194290161,-10.001602172851562,-0.20213392376899719,-0.34647727012634277,-0.018908444792032242,-0.05714065209031105,0.098366089165210724,0.0,0.86984008550643921,0.0037925555370748043,0.0,0.66339707374572754,0.0,1.5538530349731445,0.0023080396931618452,0.036589004099369049,0.0044834613800048828,-1.3721232709950527e-18,0.036862672813153967,0.025000000000000001,0.040000000000000001,0.29999999999999999,0.29999999999999999,0.80000000000000004,1
18:39:28.782,0.62270510196685791,1.6573536396026611,-9.2351961135864258,-0.99442434310913086,-0.34647727012634277,-0.31398668885231018,-0.13038808107376099,0.098366089165210724,0.0,0.0,0.10982759296894073,0.0,0.66339707374572754,0.0,1.5538530349731445,0.0010833032429218292,0.036589004099369049,0.0044834613800048828,-1.3721232709950527e-18,0.036862672813153967,0.025000000000000001,0.040000000000000001,0.29999999999999999,0.29999999999999999,0.80000000000000004,1
18:39:28.834,0.62270510196685791,1.6573536396026611,-9.2351961135864258,-0.99442434310913086,-0.34647727012634277,-0.31398668885231018,-0.13038808107376099,0.098366089165210724,0.0,0.0,0.10982759296894073,0.0,0.66339707374572754,0.0,1.5538530349731445,0.0010833032429218292,0.036589004099369049,0.0044834613800048828,-1.3721232709950527e-18,0.036862672813153967,0.025000000000000001,0.040000000000000001,0.29999999999999999,0.29999999999999999,0.80000000000000004,1
18:39:28.891,0.62270510196685791,1.6573536396026611,-9.2351961135864258,-0.99442434310913086,-0.34647727012634277,-0.31398668885231018,-0.13038808107376099,0.098366089165210724,0.0,0.0,0.10982759296894073,0.0,0.66339707374572754,0.0,1.5538530349731445,0.0010833032429218292,0.036589004099369049,0.0044834613800048828,-1.3721232709950527e-18,0.036862672813153967,0.025000000000000001,0.040000000000000001,0.29999999999999999,0.29999999999999999,0.80000000000000004,1
18:39:28.930,0.62270510196685791,1.6573536396026611,-9.2351961135864258,-0.99442434310913086,-0.34647727012634277,-0.31398668885231018,-0.13038808107376099,0.098366089165210724,0.0,0.0,0.10982759296894073,0.0,0.66339707374572754,0.0,1.5538530349731445,0.0010833032429218292,0.036589004099369049,0.0044834613800048828,-1.3721232709950527e-18,0.036862672813153967,0.025000000000000001,0.040000000000000001,0.29999999999999999,0.29999999999999999,0.80000000000000004,1
18:39:28.983,0.62270510196685791,1.6573536396026611,-9.2351961135864258,-0.99442434310913086,-0.34647727012634277,-0.31398668885231018,-0.13038808107376099,0.098366089165210724,0.0,0.0,0.10982759296894073,0.0,0.66339707374572754,0.0,1.5538530349731445,0.0010833032429218292,0.096268296241760254,0.0096452338621020317,-1.3829323970704355e-14,0.096750273371944279,0.025000000000000001,0.040000000000000001,0.29999999999999999,0.29999999999999999,0.80000000000000004,1
18:39:29.083,0.62270510196685791,1.6573536396026611,-9.2351961135864258,-0.99442434310913086,-0.34647727012634277,-0.31398668885231018,-0.13038808107376099,0.098366089165210724,0.0,0.0,0.10982759296894073,0.0,0.66339707374572754,0.0,1.5538530349731445,0.0010833032429218292,0.096268296241760254,0.0096452338621020317,-1.3829323970704355e-14,0.096750273371944279,0.025000000000000001,0.040000000000000001,0.29999999999999999,0.29999999999999999,0.80000000000000004,1
18:39:29.113,0.81430667638778687,1.5998730659484863,-9.2639360427856445,0.38828888535499573,-0.022636869922280312,-0.97205382585525513,-0.16777878999710083,0.12137586623430252,0.56069070100784302,0.29394072294235229,2.7182767391204834,0.0,0.0,0.0,0.0,0.0030773913022130728,0.096268296241760254,0.0096452338621020317,-1.3829323970704355e-14,0.096750273371944279,0.025000000000000001,0.040000000000000001,0.29999999999999999,0.29999999999999999,0.80000000000000004,0
18:39:29.164,0.81430667638778687,1.5998730659484863,-9.2639360427856445,0.38828888535499573,-0.022636869922280312,-0.97205382585525513,-0.16777878999710083,0.12137586623430252,0.56069070100784302,0.29394072294235229,2.7182767391204834,0.0,0.0,0.0,0.0,0.0030773913022130728,0.096268296241760254,0.0096452338621020317,-1.3829323970704355e-14,0.096750273371944279,0.025000000000000001,0.040000000000000001,0.29999999999999999,0.29999999999999999,0.80000000000000004,0
18:39:29.202,0.81430667638778687,1.5998730659484863,-9.2639360427856445,0.38828888535499573,-0.022636869922280312,-0.97205382585525513,-0.16777878999710083,0.12137586623430252,0.56069070100784302,0.29394072294235229,2.7182767391204834,0.0,0.0,0.0,0.0,0.0030773913022130728,0.096268296241760254,0.0096452338621020317,-1.3829323970704355e-14,0.096750273371944279,0.025000000000000001,0.040000000000000001,0.29999999999999999,0.29999999999999999,0.80000000000000004,0
18:39:29.259,0.81430667638778687,1.5998730659484863,-9.2639360427856445,0.38828888535499573,-0.022636869922280312,-0.97205382585525513,-0.16777878999710083,0.12137586623430252,0.56069070100784302,0.29394072294235229,2.7182767391204834,0.0,0.0,0.0,0.0,0.0030773913022130728,0.096268296241760254,0.0096452338621020317,-1.3829323970704355e-14,0.096750273371944279,0.025000000000000001,0.040000000000000001,0.29999999999999999,0.29999999999999999,0.80000000000000004,0
18:39:29.320,0.81430667638778687,1.5998730659484863,-9.2639360427856445,0.38828888535499573,-0.022636869922280312,-0.97205382585525513,-0.16777878999710083,0.12137586623430252,0.56069070100784302,0.29394072294235229,2.7182767391204834,0.0,0.0,0.0,0.0,0.0030773913022130728,0.096268296241760254,0.0096452338621020317,-1.3829323970704355e-14,0.096750273371944279,0.025000000000000001,0.040000000000000001,0.29999999999999999,0.29999999999999999,0.80000000000000004,0
18:39:29.357,0.81430667638778687,1.5998730659484863,-9.2639360427856445,0.38828888535499573,-0.022636869922280312,-0.97205382585525513,-0.16777878999710083,0.12137586623430252,0.56069070100784302,0.29394072294235229,2.7182767391204834,0.0,0.0,0.0,0.0,0.0030773913022130728,0.096268296241760254,0.0096452338621020317,-1.3829323970704355e-14,0.096750273371944279,0.025000000000000001,0.040000000000000001,0.29999999999999999,0.29999999999999999,0.80000000000000004,0
18:39:29.437,0.81430667638778687,1.5998730659484863,-9.2639360427856445,0.19201391935348511,-0.16884441673755646,0.28043085336685181,-0.16777878999710083,0.019366089254617691,0.56069070100784302,0.0,0.0021767336875200272,0.36249783635139465,0.19278426468372345,0.0,0.0,0.0030773913022130728,0.096236206591129303,0.0074912318959832191,-1.3829323970704355e-14,0.096527332991075201,0.025000000000000001,0.040000000000000001,0.29999999999999999,0.29999999999999999,0.80000000000000004,0
18:39:29.458,0.9867480993270874,-4.2535548210144043,-15.299385070800781,0.19201391935348511,-0.16884441673755646,0.28043085336685181,0.12770432233810425,0.019366089254617691,0.0,0.0,0.0021767336875200272,0.36249783635139465,0.19278426468372345,3.4526488780975342,0.0,1.8157510757446289,0.096236206591129303,0.0074912318959832191,-1.3829323970704355e-14,0.096527332991075201,0.025000000000000001,0.040000000000000001,0.29999999999999999,0.29999999999999999,0.80000000000000004,1
18:39:29.508,0.9867480993270874,-4.2535548210144043,-15.299385070800781,0.19201391935348511,-0.16884441673755646,0.28043085336685181,0.12770432233810425,0.019366089254617691,0.0,0.0,0.0021767336875200272,0.36249783635139465,0.19278426468372345,3.4526488780975342,0.0,1.8157510757446289,0.096236206591129303,0.0074912318959832191,-1.3829323970704355e-14,0.096527332991075201,0.025000000000000001,0.040000000000000001,0.29999999999999999,0.29999999999999999,0.80000000000000004,1
18:39:29.566,0.9867480993270874,-4.2535548210144043,-15.299385070800781,0.19201391935348511,-0.16884441673755646,0.28043085336685181,0.12770432233810425,0.019366089254617691,0.0,0.0,0.0021767336875200272,0.36249783635139465,0.19278426468372345,3.4526488780975342,0.0,1.8157510757446289,0.096236206591129303,0.0074912318959832191,-1.3829323970704355e-14,0.096527332991075201,0.025000000000000001,0.040000000000000001,0.29999999999999999,0.29999999999999999,0.80000000000000004,1
18:39:29.606,0.9867480993270874,-4.2535548210144043,-15.299385070800781,0.19201391935348511,-0.16884441673755646,0.28043085336685181,0.12770432233810425,0.019366089254617691,0.0,0.0,0.0021767336875200272,0.36249783635139465,0.19278426468372345,3.4526488780975342,0.0,1.8157510757446289,0.096236206591129303,0.0074912318959832191,-1.3829323970704355e-14,0.096527332991075201,0.025000000000000001,0.040000000000000001,0.29999999999999999,0.29999999999999999,0.80000000000000004,1
18:39:29.660,0.9867480993270874,-4.2535548210144043,-15.299385070800781,0.19201391935348511,-0.16884441673755646,0.28043085336685181,0.12770432233810425,0.019366089254617691,0.0,0.0,0.0021767336875200272,0.36249783635139465,0.19278426468372345,3.4526488780975342,0.0,1.8157510757446289,0.096236206591129303,0.0074912318959832191,-1.3829323970704355e-14,0.096527332991075201,0.025000000000000001,0.040000000000000001,0.29999999999999999,0.29999999999999999,0.80000000000000004,1
18:39:29.706,0.9867480993270874,-4.2535548210144043,-15.299385070800781,0.19201391935348511,-0.16884441673755646,0.28043085336685181,0.12770432233810425,0.019366089254617691,0.0,0.0,0.0021767336875200272,0.36249783635139465,0.19278426468372345,3.4526488780975342,0.0,1.8157510757446289,0.096236206591129303,0.0074912318959832191,-1.3829323970704355e-14,0.096527332991075201,0.025000000000000001,0.040000000000000001,0.29999999999999999,0.29999999999999999,0.80000000000000004,1
18:39:29.776,1.5807129144668579,0.2490820437669754,-15.299385070800781,-0.56299227476119995,0.18189390003681183,-0.11638014018535614,0.12770432233810425,0.024159733206033707,0.0,0.0,0.015762934461236,0.0,0.13445599377155304,3.4526488780975342,1.3228093385696411,1.8157510757446289,0.096236206591129303,0.0074912318959832191,-1.3829323970704355e-14,0.096527332991075201,0.025000000000000001,0.040000000000000001,0.29999999999999999,0.29999999999999999,0.80000000000000004,1
18:39:29.810,1.5807129144668579,0.2490820437669754,-9.5513381958007812,-0.56299227476119995,0.18189390003681183,-0.11638014018535614,-0.039307896047830582,0.024159733206033707,0.0,0.0,0.015762934461236,0.0,0.13445599377155304,0.68585461378097534,1.3228093385696411,0.17592984437942505,0.096236206591129303,0.0074912318959832191,-1.3829323970704355e-14,0.096527332991075201,0.025000000000000001,0.040000000000000001,0.29999999999999999,0.29999999999999999,0.80000000000000004,1
18:39:29.859,1.5807129144668579,0.2490820437669754,-9.5513381958007812,-0.56299227476119995,0.18189390003681183,-0.11638014018535614,-0.039307896047830582,0.024159733206033707,0.0,0.0,0.015762934461236,0.0,0.13445599377155304,0.68585461378097534,1.3228093385696411,0.17592984437942505,0.096216343343257904,0.0066663417965173721,-1.3829323970704355e-14,0.096447005341253,0.025000000000000001,0.040000000000000001,0.29999999999999999,0.29999999999999999,0.80000000000000004,1
18:39:29.906,1.5807129144668579,0.2490820437669754,-9.5513381958007812,-0.56299227476119995,0.18189390003681183,-0.11638014018535614,-0.039307896047830582,0.024159733206033707,0.0,0.0,0.015762934461236,0.0,0.13445599377155304,0.68585461378097534,1.3228093385696411,0.17592984437942505,0.096216343343257904,0.0066663417965173721,-1.3829323970704355e-14,0.096447005341253,0.025000000000000001,0.040000000000000001,0.29999999999999999,0.29999999999999999,0.80000000000000004,1
18:39:29.966,1.5807129144668579,0.2490820437669754,-9.5513381958007812,-0.56299227476119995,0.18189390003681183,-0.11638014018535614,-0.039307896047830582,0.024159733206033707,0.0,0.0,0.015762934461236,0.0,0.13445599377155304,0.68585461378097534,1.3228093385696411,0.17592984437942505,0.096216343343257904,0.0066663417965173721,-1.3829323970704355e-14,0.096447005341253,0.025000000000000001,0.040000000000000001,0.29999999999999999,0.29999999999999999,0.80000000000000004,1
18:39:30.011,1.5807129144668579,0.2490820437669754,-9.5513381958007812,-0.56299227476119995,0.18189390003681183,-0.11638014018535614,-0.039307896047830582,0.024159733206033707,0.0,0.0,0.015762934461236,0.0,0.13445599377155304,0.68585461378097534,1.3228093385696411,0.17592984437942505,0.096216343343257904,0.0066663417965173721,-1.3829323970704355e-14,0.096447005341253,0.025000000000000001,0.040000000000000001,0.29999999999999999,0.29999999999999999,0.80000000000000004,1
18:39:31.488,0.29698243737220764,-0.93884772062301636,-10.126143455505371,-0.068176925182342529,0.3941478431224823,-0.43303000926971436,-0.0166819728910923,-0.047553714364767075,0.0,0.0,1.1907825469970703,0.03363746777176857,0.0,0.11257021129131317,0.34658893942832947,2.0336508750915527,0.0,0.0,0.0,0.0,0.025000000000000001,0.040000000000000001,0.29999999999999999,0.29999999999999999,0.80000000000000004,1
18:39:31.515,0.29698243737220764,-0.93884772062301636,-9.819580078125,-0.068176925182342529,0.3941478431224823,-0.43303000926971436,0.010546382516622543,-0.047553714364767075,0.0,0.0,1.1907825469970703,0.03363746777176857,0.0,0.19646430015563965,0.34658893942832947,1.4359830617904663,0.0,0.0,0.0,0.0,0.025000000000000001,0.040000000000000001,0.29999999999999999,0.29999999999999999,0.80000000000000004,1
18:39:31.562,0.29698243737220764,-0.93884772062301636,-9.819580078125,-0.068176925182342529,0.3941478431224823,-0.43303000926971436,0.010546382516622543,-0.047553714364767075,0.0,0.0,1.1907825469970703,0.03363746777176857,0.0,0.19646430015563965,0.34658893942832947,1.4359830617904663,0.0,0.0,0.0,0.0,0.025000000000000001,0.040000000000000001,0.29999999999999999,0.29999999999999999,0.80000000000000004,1
18:39:31.615,0.29698243737220764,-0.93884772062301636,-9.819580078125,-0.068176925182342529,0.3941478431224823,-0.43303000926971436,0.010546382516622543,-0.047553714364767075,0.0,0.0,1.1907825469970703,0.03363746777176857,0.0,0.19646430015563965,0.34658893942832947,1.4359830617904663,0.0,0.0,0.0,0.0,0.025000000000000001,0.040000000000000001,0.29999999999999999,0.29999999999999999,0.80000000000000004,1
18:39:31.664,0.29698243737220764,-0.93884772062301636,-9.819580078125,-0.068176925182342529,0.3941478431224823,-0.43303000926971436,0.010546382516622543,-0.047553714364767075,0.0,0.0,1.1907825469970703,0.03363746777176857,0.0,0.19646430015563965,0.34658893942832947,1.4359830617904663,0.0,0.0,0.0,0.0,0.025000000000000001,0.040000000000000001,0.29999999999999999,0.29999999999999999,0.80000000000000004,1
18:39:31.717,0.29698243737220764,-0.93884772062301636,-9.819580078125,-0.068176925182342529,0.3941478431224823,-0.43303000926971436,0.010546382516622543,-0.047553714364767075,0.0,0.0,1.1907825469970703,0.03363746777176857,0.0,0.19646430015563965,0.34658893942832947,1.4359830617904663,0.0,0.0,0.0,0.0,0.025000000000000001,0.040000000000000001,0.29999999999999999,0.29999999999999999,0.80000000000000004,1
18:39:31.801,0.9867480993270874,0.2490820437669754,-9.819580078125,0.029561089351773262,0.19201391935348511,0.035153727978467941,0.010546382516622543,0.07708246260881424,0.16078931093215942,0.0,1.6231497526168823,0.14620392024517059,0.0,0.19646430015563965,0.2190784215927124,1.4359830617904663,0.0,0.0,0.0,0.0,0.025000000000000001,0.040000000000000001,0.29999999999999999,0.29999999999999999,0.80000000000000004,1
18:39:31.827,0.9867480993270874,0.2490820437669754,-9.9345417022705078,0.029561089351773262,0.19201391935348511,0.035153727978467941,-0.016298595815896988,0.07708246260881424,0.16078931093215942,0.0,1.6231497526168823,0.14620392024517059,0.0,0.21333962678909302,0.2190784215927124,0.72899323701858521,0.0,0.0,0.0,0.0,0.025000000000000001,0.040000000000000001,0.29999999999999999,0.29999999999999999,0.80000000000000004,1
18:39:31.876,0.9867480993270874,0.2490820437669754,-9.9345417022705078,0.029561089351773262,0.19201391935348511,0.035153727978467941,-0.016298595815896988,0.07708246260881424,0.16078931093215942,0.0,1.6231497526168823,0.14620392024517059,0.0,0.21333962678909302,0.2190784215927124,0.72899323701858521,0.0,0.0,0.0,0.0,0.025000000000000001,0.040000000000000001,0.29999999999999999,0.29999999999999999,0.80000000000000004,1
18:39:31.924,0.9867480993270874,0.2490820437669754,-9.9345417022705078,0.029561089351773262,0.19201391935348511,0.035153727978467941,-0.016298595815896988,0.07708246260881424,0.16078931093215942,0.0,1.6231497526168823,0.14620392024517059,0.0,0.21333962678909302,0.2190784215927124,0.72899323701858521,0.0,0.0,0.0,0.0,0.025000000000000001,0.040000000000000001,0.29999999999999999,0.29999999999999999,0.80000000000000004,1
18:39:31.970,0.9867480993270874,0.2490820437669754,-9.9345417022705078,0.029561089351773262,0.19201391935348511,0.035153727978467941,-0.016298595815896988,0.07708246260881424,0.16078931093215942,0.0,1.6231497526168823,0.14620392024517059,0.0,0.21333962678909302,0.2190784215927124,0.72899323701858521,0.0,0.0,0.0,0.0,0.025000000000000001,0.040000000000000001,0.29999999999999999,0.29999999999999999,0.80000000000000004,1
18:39:32.023,0.9867480993270874,0.2490820437669754,-9.9345417022705078,0.029561089351773262,0.19201391935348511,0.035153727978467941,-0.016298595815896988,0.07708246260881424,0.16078931093215942,0.0,1.6231497526168823,0.14620392024517059,0.0,0.21333962678909302,0.2190784215927124,0.72899323701858521,0.0,0.0,0.0,0.0,0.025000000000000001,0.040000000000000001,0.29999999999999999,0.29999999999999999,0.80000000000000004,1
18:39:32.118,0.9867480993270874,0.2490820437669754,-9.9345417022705078,0.029561089351773262,0.19201391935348511,0.035153727978467941,-0.016298595815896988,0.13499003648757935,0.16078931093215942,0.0,1.6231497526168823,0.66365593671798706,0.045248106122016907,0.21333962678909302,0.2190784215927124,0.72899323701858521,0.0,0.0,0.0,0.0,0.025000000000000001,0.040000000000000001,0.29999999999999999,0.29999999999999999,0.80000000000000004,1
18:39:32.142,1.6765137910842896,-0.057480469346046448,-10.106983184814453,-0.011451592668890953,0.20879183709621429,-0.0066579030826687813,-0.013422314077615738,0.13499003648757935,0.0,0.16510891914367676,0.23778559267520905,0.66365593671798706,0.045248106122016907,0.0,1.1027805805206299,0.23184013366699219,0.0,0.0,0.0,0.0,0.025000000000000001,0.040000000000000001,0.29999999999999999,0.29999999999999999,0.80000000000000004,1
18:39:32.200,1.6765137910842896,-0.057480469346046448,-10.106983184814453,-0.011451592668890953,0.20879183709621429,-0.0066579030826687813,-0.013422314077615738,0.13499003648757935,0.0,0.16510891914367676,0.23778559267520905,0.66365593671798706,0.045248106122016907,0.0,1.1027805805206299,0.23184013366699219,0.0,0.0,0.0,0.0,0.025000000000000001,0.040000000000000001,0.29999999999999999,0.29999999999999999,0.80000000000000004,1
18:39:32.236,1.6765137910842896,-0.057480469346046448,-10.106983184814453,-0.011451592668890953,0.20879183709621429,-0.0066579030826687813,-0.013422314077615738,0.13499003648757935,0.0,0.16510891914367676,0.23778559267520905,0.66365593671798706,0.045248106122016907,0.0,1.1027805805206299,0.23184013366699219,0.0,0.0,0.0,0.0,0.025000000000000001,0.040000000000000001,0.29999999999999999,0.29999999999999999,0.80000000000000004,1
18:39:32.291,1.6765137910842896,-0.057480469346046448,-10.106983184814453,-0.011451592668890953,0.20879183709621429,-0.0066579030826687813,-0.013422314077615738,0.13499003648757935,0.0,0.16510891914367676,0.23778559267520905,0.66365593671798706,0.045248106122016907,0.0,1.1027805805206299,0.23184013366699219,0.0,0.0,0.0,0.0,0.025000000000000001,0.040000000000000001,0.29999999999999999,0.29999999999999999,0.80000000000000004,1
18:39:32.339,1.6765137910842896,-0.057480469346046448,-10.106983184814453,-0.011451592668890953,0.20879183709621429,-0.0066579030826687813,-0.013422314077615738,0.13499003648757935,0.0,0.16510891914367676,0.23778559267520905,0.66365593671798706,0.045248106122016907,0.0,1.1027805805206299,0.23184013366699219,0.0,0.0,0.0,0.0,0.025000000000000001,0.040000000000000001,0.29999999999999999,0.29999999999999999,0.80000000000000004,1
18:39:32.395,1.6765137910842896,-0.057480469346046448,-10.106983184814453,-0.011451592668890953,0.20879183709621429,-0.0066579030826687813,-0.013422314077615738,0.13499003648757935,0.0,0.16510891914367676,0.23778559267520905,0.66365593671798706,0.045248106122016907,0.0,1.1027805805206299,0.23184013366699219,0.0,0.0,0.0,0.0,0.025000000000000001,0.040000000000000001,0.29999999999999999,0.29999999999999999,0.80000000000000004,1
18:39:32.464,2.7399024963378906,0.076640628278255463,-10.106983184814453,-0.045007422566413879,0.20692762732505798,0.088683262467384338,-0.013422314077615738,0.19807511568069458,0.0,0.30773591995239258,0.00064093637047335505,1.1400575637817383,0.1369951069355011,0.0,1.0792911052703857,0.23184013366699219,0.0,0.0,0.0,0.0,0.025000000000000001,0.040000000000000001,0.29999999999999999,0.29999999999999999,0.80000000000000004,1
18:39:32.491,2.7399024963378906,0.076640628278255463,-9.4842777252197266,-0.045007422566413879,0.20692762732505798,0.088683262467384338,-0.029145542532205582,0.19807511568069458,0.0,0.30773591995239258,0.00064093637047335505,1.1400575637817383,0.1369951069355011,0.0,1.0792911052703857,0.0,0.0,0.0,0.0,0.0,0.025000000000000001,0.040000000000000001,0.29999999999999999,0.29999999999999999,0.80000000000000004,1
18:39:32.540,2.7399024963378906,0.076640628278255463,-9.4842777252197266,-0.045007422566413879,0.20692762732505798,0.088683262467384338,-0.029145542532205582,0.19807511568069458,0.0,0.30773591995239258,0.00064093637047335505,1.1400575637817383,0.1369951069355011,0.0,1.0792911052703857,0.0,0.0,0.0,0.0,0.0,0.025000000000000001,0.040000000000000001,0.29999999999999999,0.29999999999999999,0.80000000000000004,1
18:39:32.595,2.7399024963378906,0.076640628278255463,-9.4842777252197266,-0.045007422566413879,0.20692762732505798,0.088683262467384338,-0.029145542532205582,0.19807511568069458,0.0,0.30773591995239258,0.00064093637047335505,1.1400575637817383,0.1369951069355011,0.0,1.0792911052703857,0.0,0.0,0.0,0.0,0.0,0.025000000000000001,0.040000000000000001,0.29999999999999999,0.29999999999999999,0.80000000000000004,1
18:39:32.635,2.7399024963378906,0.076640628278255463,-9.4842777252197266,-0.045007422566413879,0.20692762732505798,0.088683262467384338,-0.029145542532205582,0.19807511568069458,0.0,0.30773591995239258,0.00064093637047335505,1.1400575637817383,0.1369951069355011,0.0,1.0792911052703857,0.0,0.0,0.0,0.0,0.0,0.025000000000000001,0.040000000000000001,0.29999999999999999,0.29999999999999999,0.80000000000000004,1
18:39:32.697,2.7399024963378906,0.076640628278255463,-9.4842777252197266,-0.045007422566413879,0.20692762732505798,0.088683262467384338,-0.029145542532205582,0.19807511568069458,0.0,0.30773591995239258,0.00064093637047335505,1.1400575637817383,0.1369951069355011,0.0,1.0792911052703857,0.0,0.0,0.0,0.0,0.0,0.025000000000000001,0.040000000000000001,0.29999999999999999,0.29999999999999999,0.80000000000000004,1
18:39:32.743,2.7399024963378906,0.076640628278255463,-9.4842777252197266,-0.045007422566413879,0.20692762732505798,0.088683262467384338,-0.029145542532205582,0.19807511568069458,0.0,0.30773591995239258,0.00064093637047335505,1.1400575637817383,0.1369951069355011,0.0,1.0792911052703857,0.0,0.0,0.0,-3.6258726175591833e-23,3.6258726175591833e-23,0.025000000000000001,0.040000000000000001,0.29999999999999999,0.29999999999999999,0.80000000000000004,1
18:39:33.225,1.8872754573822021,-0.47900393605232239,-9.0914945602416992,-0.10918960720300674,0.062317971140146255,0.20186761021614075,-0.011504475027322769,0.18005067110061646,0.2437000572681427,0.0,0.12850332260131836,0.0,0.18037649989128113,1.8690683841705322,0.0,0.11020561307668686,0.0,0.0,0.0,0.0,0.025000000000000001,0.040000000000000001,0.29999999999999999,0.29999999999999999,0.80000000000000004,1
18:39:33.261,1.8872754573822021,-0.47900393605232239,-9.0914945602416992,-0.10918960720300674,0.062317971140146255,0.20186761021614075,-0.011504475027322769,0.18005067110061646,0.2437000572681427,0.0,0.12850332260131836,0.0,0.18037649989128113,1.8690683841705322,0.0,0.11020561307668686,0.0,0.0,0.0,0.0,0.025000000000000001,0.040000000000000001,0.29999999999999999,0.29999999999999999,0.80000000000000004,1
18:39:33.314,1.8872754573822021,-0.47900393605232239,-9.0914945602416992,-0.10918960720300674,0.062317971140146255,0.20186761021614075,-0.011504475027322769,0.18005067110061646,0.2437000572681427,0.0,0.12850332260131836,0.0,0.18037649989128113,1.8690683841705322,0.0,0.11020561307668686,0.0,0.0,0.0,0.0,0.025000000000000001,0.040000000000000001,0.29999999999999999,0.29999999999999999,0.80000000000000004,1
18:39:33.361,1.8872754573822021,-0.47900393605232239,-9.0914945602416992,-0.10918960720300674,0.062317971140146255,0.20186761021614075,-0.011504475027322769,0.18005067110061646,0.2437000572681427,0.0,0.12850332260131836,0.0,0.18037649989128113,1.8690683841705322,0.0,0.11020561307668686,0.0,0.0,0.0,0.0,0.025000000000000001,0.040000000000000001,0.29999999999999999,0.29999999999999999,0.80000000000000004,1
18:39:33.399,1.8872754573822021,-0.47900393605232239,-9.0914945602416992,-0.10918960720300674,0.062317971140146255,0.20186761021614075,-0.011504475027322769,0.18005067110061646,0.2437000572681427,0.0,0.12850332260131836,0.0,0.18037649989128113,1.8690683841705322,0.0,0.11020561307668686,0.0,0.0,0.0,0.0,0.025000000000000001,0.040000000000000001,0.29999999999999999,0.29999999999999999,0.80000000000000004,1
18:39:33.469,-0.8526269793510437,0.20118165016174316,-9.0914945602416992,-0.081492729485034943,-0.19600865244865417,0.029827404767274857,-0.011504475027322769,-0.01188867911696434,0.0,0.0,2.09720778465271,0.22974371910095215,0.0,1.8690683841705322,0.41589325666427612,0.11020561307668686,0.0,0.0,0.0,0.0,0.025000000000000001,0.040000000000000001,0.29999999999999999,0.29999999999999999,0.80000000000000004,1
18:39:33.500,-0.8526269793510437,0.20118165016174316,-10.15488338470459,-0.081492729485034943,-0.19600865244865417,0.029827404767274857,-0.0088203586637973785,-0.01188867911696434,0.0,0.0,2.09720778465271,0.22974371910095215,0.0,0.0,0.41589325666427612,0.81358522176742554,0.0,0.0,0.0,0.0,0.025000000000000001,0.040000000000000001,0.29999999999999999,0.29999999999999999,0.80000000000000004,1
18:39:33.556,-0.8526269793510437,0.20118165016174316,-10.15488338470459,-0.081492729485034943,-0.19600865244865417,0.029827404767274857,-0.0088203586637973785,-0.01188867911696434,0.0,0.0,2.09720778465271,0.22974371910095215,0.0,0.0,0.41589325666427612,0.81358522176742554,0.0,0.0,0.0,0.0,0.025000000000000001,0.040000000000000001,0.29999999999999999,0.29999999999999999,0.80000000000000004,1
18:39:33.604,-0.8526269793510437,0.20118165016174316,-10.15488338470459,-0.081492729485034943,-0.19600865244865417,0.029827404767274857,-0.0088203586637973785,-0.01188867911696434,0.0,0.0,2.09720778465271,0.22974371910095215,0.0,0.0,0.41589325666427612,0.81358522176742554,0.0,0.0,0.0,0.0,0.025000000000000001,0.040000000000000001,0.29999999999999999,0.29999999999999999,0.80000000000000004,1
18:39:33.660,-0.8526269793510437,0.20118165016174316,-10.15488338470459,-0.081492729485034943,-0.19600865244865417,0.029827404767274857,-0.0088203586637973785,-0.01188867911696434,0.0,0.0,2.09720778465271,0.22974371910095215,0.0,0.0,0.41589325666427612,0.81358522176742554,0.0,0.0,0.0,0.0,0.025000000000000001,0.040000000000000001,0.29999999999999999,0.29999999999999999,0.80000000000000004,1
18:39:33.705,-0.8526269793510437,0.20118165016174316,-10.15488338470459,-0.081492729485034943,-0.19600865244865417,0.029827404767274857,-0.0088203586637973785,-0.01188867911696434,0.0,0.0,2.09720778465271,0.22974371910095215,0.0,0.0,0.41589325666427612,0.81358522176742554,0.0,0.0,0.0,0.0,0.025000000000000001,0.040000000000000001,0.29999999999999999,0.29999999999999999,0.80000000000000004,1
18:39:33.772,-0.8526269793510437,0.20118165016174316,-10.15488338470459,-0.081492729485034943,-0.19600865244865417,0.029827404767274857,-0.0088203586637973785,-0.01188867911696434,0.0,0.0,2.09720778465271,0.22974371910095215,0.0,0.0,0.41589325666427612,0.81358522176742554,0.0,0.0,0.0,0.0,0.025000000000000001,0.040000000000000001,0.29999999999999999,0.29999999999999999,0.80000000000000004,1
18:39:33.820,0.28740236163139343,0.20118165016174316,-9.9249610900878906,-0.095873802900314331,0.4314320981502533,-0.23355923593044281,-0.0042184037156403065,0.009970489889383316,0.0,0.0,0.75639498233795166,0.77292090654373169,0.0,0.0,0.94416314363479614,0.64231026172637939,0.0,0.0,0.0,0.0,0.025000000000000001,0.040000000000000001,0.29999999999999999,0.29999999999999999,0.80000000000000004,1
18:39:33.857,0.28740236163139343,0.20118165016174316,-9.9249610900878906,-0.095873802900314331,0.4314320981502533,-0.23355923593044281,-0.0042184037156403065,0.009970489889383316,0.0,0.0,0.75639498233795166,0.77292090654373169,0.0,0.0,0.94416314363479614,0.64231026172637939,0.0,0.0,0.0,0.0,0.025000000000000001,0.040000000000000001,0.29999999999999999,0.29999999999999999,0.80000000000000004,1
18:39:33.901,0.28740236163139343,0.20118165016174316,-9.9249610900878906,-0.095873802900314331,0.4314320981502533,-0.23355923593044281,-0.0042184037156403065,0.009970489889383316,0.0,0.0,0.75639498233795166,0.77292090654373169,0.0,0.0,0.94416314363479614,0.64231026172637939,0.0,0.0,0.0,0.0,0.025000000000000001,0.040000000000000001,0.29999999999999999,0.29999999999999999,0.80000000000000004,1
18:39:33.961,0.28740236163139343,0.20118165016174316,-9.9249610900878906,-0.095873802900314331,0.4314320981502533,-0.23355923593044281,-0.0042184037156403065,0.009970489889383316,0.0,0.0,0.75639498233795166,0.77292090654373169,0.0,0.0,0.94416314363479614,0.64231026172637939,0.0,0.0,0.0,0.0,0.025000000000000001,0.040000000000000001,0.29999999999999999,0.29999999999999999,0.80000000000000004,1
18:39:34.002,0.28740236163139343,0.20118165016174316,-9.9249610900878906,-0.095873802900314331,0.4314320981502533,-0.23355923593044281,-0.0042184037156403065,0.009970489889383316,0.0,0.0,0.75639498233795166,0.77292090654373169,0.0,0.0,0.94416314363479614,0.64231026172637939,0.0,0.0,0.0,0.0,0.025000000000000001,0.040000000000000001,0.29999999999999999,0.29999999999999999,0.80000000000000004,1
18:39:34.058,0.28740236163139343,0.20118165016174316,-9.9249610900878906,-0.095873802900314331,0.4314320981502533,-0.23355923593044281,-0.0042184037156403065,0.009970489889383316,0.0,0.0,0.75639498233795166,0.77292090654373169,0.0,0.0,0.94416314363479614,0.64231026172637939,0.0,0.0,0.0,0.0,0.025000000000000001,0.040000000000000001,0.29999999999999999,0.29999999999999999,0.80000000000000004,1
18:39:34.153,0.28740236163139343,0.20118165016174316,-9.9249610900878906,0.033289514482021332,0.50120693445205688,-0.02316950261592865,-0.0042184037156403065,0.26556998491287231,0.0,0.49990534782409668,0.00060304382350295782,0.46694275736808777,0.39348301291465759,0.0,0.18253670632839203,0.64231026172637939,0.0,0.0,0.0,0.0,0.025000000000000001,0.040000000000000001,0.29999999999999999,0.29999999999999999,0.80000000000000004,1
18:39:34.189,4.3014554977416992,0.23950196802616119,-9.2160358428955078,0.033289514482021332,0.50120693445205688,-0.02316950261592865,-0.024351898580789566,0.26556998491287231,0.0,0.49990534782409668,0.00060304382350295782,0.46694275736808777,0.39348301291465759,0.45247316360473633,0.18253670632839203,0.0,0.0,0.0,0.0,0.0,0.025000000000000001,0.040000000000000001,0.29999999999999999,0.29999999999999999,0.80000000000000004,1
18:39:34.230,4.3014554977416992,0.23950196802616119,-9.2160358428955078,0.033289514482021332,0.50120693445205688,-0.02316950261592865,-0.024351898580789566,0.26556998491287231,0.0,0.49990534782409668,0.00060304382350295782,0.46694275736808777,0.39348301291465759,0.45247316360473633,0.18253670632839203,0.0,0.0,0.0,0.0,0.0,0.025000000000000001,0.040000000000000001,0.29999999999999999,0.29999999999999999,0.80000000000000004,1
18:39:34.275,4.3014554977416992,0.23950196802616119,-9.2160358428955078,0.033289514482021332,0.50120693445205688,-0.02316950261592865,-0.024351898580789566,0.26556998491287231,0.0,0.49990534782409668,0.00060304382350295782,0.46694275736808777,0.39348301291465759,0.45247316360473633,0.18253670632839203,0.0,0.0,0.0,0.0,0.0,0.025000000000000001,0.040000000000000001,0.29999999999999999,0.29999999999999999,0.80000000000000004,1
18:39:34.330,4.3014554977416992,0.23950196802616119,-9.2160358428955078,0.033289514482021332,0.50120693445205688,-0.02316950261592865,-0.024351898580789566,0.26556998491287231,0.0,0.49990534782409668,0.00060304382350295782,0.46694275736808777,0.39348301291465759,0.45247316360473633,0.18253670632839203,0.0,0.0,0.0,0.0,0.0,0.025000000000000001,0.040000000000000001,0.29999999999999999,0.29999999999999999,0.80000000000000004,1
18:39:34.373,4.3014554977416992,0.23950196802616119,-9.2160358428955078,0.033289514482021332,0.50120693445205688,-0.02316950261592865,-0.024351898580789566,0.26556998491287231,0.0,0.49990534782409668,0.00060304382350295782,0.46694275736808777,0.39348301291465759,0.45247316360473633,0.18253670632839203,0.0,0.0,0.0,0.0,0.0,0.025000000000000001,0.040000000000000001,0.29999999999999999,0.29999999999999999,0.80000000000000004,1
18:39:34.457,4.3014554977416992,0.23950196802616119,-9.2160358428955078,0.033289514482021332,0.50120693445205688,-0.02316950261592865,-0.024351898580789566,0.26556998491287231,0.0,0.49990534782409668,0.00060304382350295782,0.46694275736808777,0.39348301291465759,0.45247316360473633,0.18253670632839203,0.0,0.0,0.0,-1.2417634032146907e-08,1.2417634032146907e-08,0.025000000000000001,0.040000000000000001,0.29999999999999999,0.29999999999999999,0.80000000000000004,1
18:39:34.484,4.3014554977416992,-0.095800787210464478,-9.2160358428955078,-0.096140116453170776,-0.64128917455673218,0.0,-0.024351898580789566,0.083410091698169708,0.0,0.1783144623041153,0.0027629074174910784,0.94796866178512573,0.22212767601013184,0.45247316360473633,0.99762767553329468,0.0,0.0,0.0,-1.2417634032146907e-08,1.2417634032146907e-08,0.025000000000000001,0.040000000000000001,0.29999999999999999,0.29999999999999999,0.80000000000000004,1
18:39:34.728,2.4525001049041748,-0.095800787210464478,-10.518926620483398,-0.096140116453170776,-0.64128917455673218,0.0,0.00038355193100869656,0.083410091698169708,0.0,0.1783144623041153,0.0027629074174910784,0.94796866178512573,0.22212767601013184,0.0,0.99762767553329468,0.0010833032429218292,0.0,0.0,0.0,0.0,0.025000000000000001,0.040000000000000001,0.29999999999999999,0.29999999999999999,0.80000000000000004,1
18:39:34.830,-1.0154882669448853,-4.5217971801757812,-10.518926620483398,-0.027696875855326653,0.68336713314056396,0.098803281784057617,0.00038355193100869656,0.12099248915910721,0.0,0.0,0.031343456357717514,0.0,0.049405183643102646,0.0,0.28284162282943726,0.0010833032429218292,0.0,0.0,0.0,0.0,0.025000000000000001,0.040000000000000001,0.29999999999999999,0.29999999999999999,0.80000000000000004,1
18:39:34.851,-1.0154882669448853,-4.5217971801757812,-17.665664672851562,-0.027696875855326653,0.68336713314056396,0.098803281784057617,0.014956649392843246,0.12099248915910721,0.0,0.0,0.031343456357717514,0.0,0.049405183643102646,0.48750573396682739,0.28284162282943726,1.1890400648117065,0.0,0.0,0.0,0.0,0.025000000000000001,0.040000000000000001,0.29999999999999999,0.29999999999999999,0.80000000000000004,1
18:39:34.900,-1.0154882669448853,-4.5217971801757812,-17.665664672851562,-0.027696875855326653,0.68336713314056396,0.098803281784057617,0.014956649392843246,0.12099248915910721,0.0,0.0,0.031343456357717514,0.0,0.049405183643102646,0.48750573396682739,0.28284162282943726,1.1890400648117065,0.0,0.0,0.0,0.0,0.025000000000000001,0.040000000000000001,0.29999999999999999,0.29999999999999999,0.80000000000000004,1
18:39:34.954,-1.0154882669448853,-4.5217971801757812,-17.665664672851562,-0.027696875855326653,0.68336713314056396,0.098803281784057617,0.014956649392843246,0.12099248915910721,0.0,0.0,0.031343456357717514,0.0,0.049405183643102646,0.48750573396682739,0.28284162282943726,1.1890400648117065,0.0,0.0,0.0,0.0,0.025000000000000001,0.040000000000000001,0.29999999999999999,0.29999999999999999,0.80000000000000004,1
18:39:35.001,-1.0154882669448853,-4.5217971801757812,-17.665664672851562,-0.027696875855326653,0.68336713314056396,0.098803281784057617,0.014956649392843246,0.12099248915910721,0.0,0.0,0.031343456357717514,0.0,0.049405183643102646,0.48750573396682739,0.28284162282943726,1.1890400648117065,0.0,0.0,0.0,0.0,0.025000000000000001,0.040000000000000001,0.29999999999999999,0.29999999999999999,0.80000000000000004,1
18:39:35.056,-1.0154882669448853,-4.5217971801757812,-17.665664672851562,-0.027696875855326653,0.68336713314056396,0.098803281784057617,0.014956649392843246,0.12099248915910721,0.0,0.0,0.031343456357717514,0.0,0.049405183643102646,0.48750573396682739,0.28284162282943726,1.1890400648117065,0.0,0.0,0.0,0.0,0.025000000000000001,0.040000000000000001,0.29999999999999999,0.29999999999999999,0.80000000000000004,1
18:39:35.141,-1.0154882669448853,-4.5217971801757812,-17.665664672851562,-0.027696875855326653,0.68336713314056396,0.098803281784057617,0.014956649392843246,0.12099248915910721,0.0,0.0,0.031343456357717514,0.0,0.049405183643102646,0.48750573396682739,0.28284162282943726,1.1890400648117065,0.0,0.0,0.0,0.0,0.025000000000000001,0.040000000000000001,0.29999999999999999,0.29999999999999999,0.80000000000000004,1
18:39:35.163,-0.45984375476837158,0.076640628278255463,-9.6471395492553711,0.0090547483414411545,0.10253170132637024,-0.19228023290634155,-0.036623779684305191,0.033363644033670425,0.0,0.0,0.73642021417617798,0.64186578989028931,0.0,0.0,0.96644443273544312,0.68778312206268311,0.0,0.0,0.0,0.0,0.025000000000000001,0.040000000000000001,0.29999999999999999,0.29999999999999999,0.80000000000000004,1
18:39:35.220,-0.45984375476837158,0.076640628278255463,-9.6471395492553711,0.0090547483414411545,0.10253170132637024,-0.19228023290634155,-0.036623779684305191,0.033363644033670425,0.0,0.0,0.73642021417617798,0.64186578989028931,0.0,0.0,0.96644443273544312,0.68778312206268311,0.0,0.0,0.0,0.0,0.025000000000000001,0.040000000000000001,0.29999999999999999,0.29999999999999999,0.80000000000000004,1
18:39:35.261,-0.45984375476837158,0.076640628278255463,-9.6471395492553711,0.0090547483414411545,0.10253170132637024,-0.19228023290634155,-0.036623779684305191,0.033363644033670425,0.0,0.0,0.73642021417617798,0.64186578989028931,0.0,0.0,0.96644443273544312,0.68778312206268311,0.0,0.0,0.0,0.0,0.025000000000000001,0.040000000000000001,0.29999999999999999,0.29999999999999999,0.80000000000000004,1
18:39:35.312,-0.45984375476837158,0.076640628278255463,-9.6471395492553711,0.0090547483414411545,0.10253170132637024,-0.19228023290634155,-0.036623779684305191,0.033363644033670425,0.0,0.0,0.73642021417617798,0.64186578989028931,0.0,0.0,0.96644443273544312,0.68778312206268311,0.0,0.0,0.0,0.0,0.025000000000000001,0.040000000000000001,0.29999999999999999,0.29999999999999999,0.80000000000000004,1
18:39:35.363,-0.45984375476837158,0.076640628278255463,-9.6471395492553711,0.0090547483414411545,0.10253170132637024,-0.19228023290634155,-0.036623779684305191,0.033363644033670425,0.0,0.0,0.73642021417617798,0.64186578989028931,0.0,0.0,0.96644443273544312,0.68778312206268311,0.0,0.0,0.0,0.0,0.025000000000000001,0.040000000000000001,0.29999999999999999,0.29999999999999999,0.80000000000000004,1
18:39:35.416,-0.45984375476837158,0.076640628278255463,-9.6471395492553711,0.0090547483414411545,0.10253170132637024,-0.19228023290634155,-0.036623779684305191,0.033363644033670425,0.0,0.0,0.73642021417617798,0.64186578989028931,0.0,0.0,0.96644443273544312,0.68778312206268311,0.0,0.0,0.0,0.0,0.025000000000000001,0.040000000000000001,0.29999999999999999,0.29999999999999999,0.80000000000000004,1
18:39:35.489,-0.45984375476837158,0.076640628278255463,-9.6471395492553711,0.05006742849946022,0.28016453981399536,-0.1137169823050499,-0.036623779684305191,0.10929615050554276,0.0,0.13549639284610748,0.0036728621926158667,0.85114020109176636,0.083143830299377441,0.0,1.5810567140579224,0.68778312206268311,0.0,0.0,0.0,0.0,0.025000000000000001,0.040000000000000001,0.29999999999999999,0.29999999999999999,0.80000000000000004,1
18:39:35.512,2.0692970752716064,0.1245410218834877,-9.9632816314697266,0.05006742849946022,0.28016453981399536,-0.1137169823050499,-0.017257038503885269,0.10929615050554276,0.0,0.13549639284610748,0.0036728621926158667,0.85114020109176636,0.083143830299377441,0.0,1.5810567140579224,0.0068276906386017799,0.0,0.0,0.0,0.0,0.025000000000000001,0.040000000000000001,0.29999999999999999,0.29999999999999999,0.80000000000000004,1
18:39:35.563,2.0692970752716064,0.1245410218834877,-9.9632816314697266,0.05006742849946022,0.28016453981399536,-0.1137169823050499,-0.017257038503885269,0.10929615050554276,0.0,0.13549639284610748,0.0036728621926158667,0.85114020109176636,0.083143830299377441,0.0,1.5810567140579224,0.0068276906386017799,0.0,0.0,0.0,0.0,0.025000000000000001,0.040000000000000001,0.29999999999999999,0.29999999999999999,0.80000000000000004,1
18:39:35.620,2.0692970752716064,0.1245410218834877,-9.9632816314697266,0.05006742849946022,0.28016453981399536,-0.1137169823050499,-0.017257038503885269,0.10929615050554276,0.0,0.13549639284610748,0.0036728621926158667,0.85114020109176636,0.083143830299377441,0.0,1.5810567140579224,0.0068276906386017799,0.0,0.0,0.0,0.0,0.025000000000000001,0.040000000000000001,0.29999999999999999,0.29999999999999999,0.80000000000000004,1
18:39:35.660,2.0692970752716064,0.1245410218834877,-9.9632816314697266,0.05006742849946022,0.28016453981399536,-0.1137169823050499,-0.017257038503885269,0.10929615050554276,0.0,0.13549639284610748,0.0036728621926158667,0.85114020109176636,0.083143830299377441,0.0,1.5810567140579224,0.0068276906386017799,0.0,0.0,0.0,0.0,0.025000000000000001,0.040000000000000001,0.29999999999999999,0.29999999999999999,0.80000000000000004,1
18:39:35.716,2.0692970752716064,0.1245410218834877,-9.9632816314697266,0.05006742849946022,0.28016453981399536,-0.1137169823050499,-0.017257038503885269,0.10929615050554276,0.0,0.13549639284610748,0.0036728621926158667,0.85114020109176636,0.083143830299377441,0.0,1.5810567140579224,0.0068276906386017799,0.0,0.0,0.0,0.0,0.025000000000000001,0.040000000000000001,0.29999999999999999,0.29999999999999999,0.80000000000000004,1
18:39:35.778,2.0692970752716064,0.1245410218834877,-9.9632816314697266,0.05006742849946022,0.28016453981399536,-0.1137169823050499,-0.017257038503885269,0.10929615050554276,0.0,0.13549639284610748,0.0036728621926158667,0.85114020109176636,0.083143830299377441,0.0,1.5810567140579224,0.0068276906386017799,0.0,0.0,0.0,0.0,0.025000000000000001,0.040000000000000001,0.29999999999999999,0.29999999999999999,0.80000000000000004,1
18:39:35.825,2.0692970752716064,0.1245410218834877,-9.9632816314697266,-0.025566346943378448,0.034354779869318008,-0.034088462591171265,-0.017257038503885269,0.13940030336380005,0.0,0.072193771600723267,0.003077872097492218,0.99929243326187134,0.032090991735458374,0.0,1.6580823659896851,0.0068276906386017799,0.0,0.0,0.0,0.0,0.025000000000000001,0.040000000000000001,0.29999999999999999,0.29999999999999999,0.80000000000000004,1
18:39:35.861,1.6286133527755737,-0.20118165016174316,-10.097402572631836,-0.025566346943378448,0.034354779869318008,-0.034088462591171265,-0.011312786489725113,0.13940030336380005,0.0,0.072193771600723267,0.003077872097492218,0.99929243326187134,0.032090991735458374,0.0,1.6580823659896851,0.0015800627879798412,0.0,0.0,0.0,0.0,0.025000000000000001,0.040000000000000001,0.29999999999999999,0.29999999999999999,0.80000000000000004,1
18:39:35.914,1.6286133527755737,-0.20118165016174316,-10.097402572631836,-0.025566346943378448,0.034354779869318008,-0.034088462591171265,-0.011312786489725113,0.13940030336380005,0.0,0.072193771600723267,0.003077872097492218,0.99929243326187134,0.032090991735458374,0.0,1.6580823659896851,0.0015800627879798412,0.0,0.0,0.0,0.0,0.025000000000000001,0.040000000000000001,0.29999999999999999,0.29999999999999999,0.80000000000000004,1
18:39:35.965,1.6286133527755737,-0.20118165016174316,-10.097402572631836,-0.025566346943378448,0.034354779869318008,-0.034088462591171265,-0.011312786489725113,0.13940030336380005,0.0,0.072193771600723267,0.003077872097492218,0.99929243326187134,0.032090991735458374,0.0,1.6580823659896851,0.0015800627879798412,0.0,0.0,0.0,0.0,0.025000000000000001,0.040000000000000001,0.29999999999999999,0.29999999999999999,0.80000000000000004,1
18:39:36.020,1.6286133527755737,-0.20118165016174316,-10.097402572631836,-0.025566346943378448,0.034354779869318008,-0.034088462591171265,-0.011312786489725113,0.13940030336380005,0.0,0.072193771600723267,0.003077872097492218,0.99929243326187134,0.032090991735458374,0.0,1.6580823659896851,0.0015800627879798412,0.0,0.0,-1.2417634920325327e-08,1.2417634920325327e-08,0.025000000000000001,0.040000000000000001,0.29999999999999999,0.29999999999999999,0.80000000000000004,1
18:39:36.225,1.5423926115036011,0.76640629768371582,-9.9345417022705078,0.039148468524217606,0.054861120879650116,0.054594803601503372,-0.036239925771951675,0.078424759209156036,0.43639248609542847,1.1572272777557373,0.00011260958854109049,0.76152944564819336,0.63614320755004883,0.3505883514881134,1.1271985769271851,0.00042995874537155032,0.0,0.0,0.0,0.0,0.025000000000000001,0.040000000000000001,0.29999999999999999,0.29999999999999999,0.80000000000000004,1
18:39:36.265,1.5423926115036011,0.76640629768371582,-9.9345417022705078,0.039148468524217606,0.054861120879650116,0.054594803601503372,-0.036239925771951675,0.078424759209156036,0.43639248609542847,1.1572272777557373,0.00011260958854109049,0.76152944564819336,0.63614320755004883,0.3505883514881134,1.1271985769271851,0.00042995874537155032,0.0,0.0,0.0,0.0,0.025000000000000001,0.040000000000000001,0.29999999999999999,0.29999999999999999,0.80000000000000004,1
18:39:36.322,1.5423926115036011,0.76640629768371582,-9.9345417022705078,0.039148468524217606,0.054861120879650116,0.054594803601503372,-0.036239925771951675,0.078424759209156036,0.43639248609542847,1.1572272777557373,0.00011260958854109049,0.76152944564819336,0.63614320755004883,0.3505883514881134,1.1271985769271851,0.00042995874537155032,0.0,0.0,0.0,0.0,0.025000000000000001,0.040000000000000001,0.29999999999999999,0.29999999999999999,0.80000000000000004,1
18:39:36.362,1.5423926115036011,0.76640629768371582,-9.9345417022705078,0.039148468524217606,0.054861120879650116,0.054594803601503372,-0.036239925771951675,0.078424759209156036,0.43639248609542847,1.1572272777557373,0.00011260958854109049,0.76152944564819336,0.63614320755004883,0.3505883514881134,1.1271985769271851,0.00042995874537155032,0.0,0.0,0.0,0.0,0.025000000000000001,0.040000000000000001,0.29999999999999999,0.29999999999999999,0.80000000000000004,1
18:39:36.415,1.5423926115036011,0.76640629768371582,-9.9345417022705078,0.039148468524217606,0.054861120879650116,0.054594803601503372,-0.036239925771951675,0.078424759209156036,0.43639248609542847,1.1572272777557373,0.00011260958854109049,0.76152944564819336,0.63614320755004883,0.3505883514881134,1.1271985769271851,0.00042995874537155032,0.0,0.0,0.0,0.0,0.025000000000000001,0.040000000000000001,0.29999999999999999,0.29999999999999999,0.80000000000000004,1
18:39:36.490,1.5423926115036011,0.76640629768371582,-9.9345417022705078,0.039148468524217606,0.054861120879650116,0.054594803601503372,-0.036239925771951675,-0.076699428260326385,0.43639248609542847,1.1572272777557373,0.00011260958854109049,0.76152944564819336,0.63614320755004883,0.3505883514881134,1.1271985769271851,0.00042995874537155032,0.0,0.0,0.0,0.0,0.025000000000000001,0.040000000000000001,0.29999999999999999,0.29999999999999999,0.80000000000000004,1
18:39:36.515,0.15328125655651093,1.3603711128234863,-8.382568359375,-0.11984225362539291,-0.70760190486907959,0.16085493564605713,-0.024926964193582535,-0.076699428260326385,0.24455936253070831,0.0,1.4161504507064819,0.0,0.0,0.0,0.12430744618177414,0.16450616717338562,0.0,0.0,0.0,0.0,0.025000000000000001,0.040000000000000001,0.29999999999999999,0.29999999999999999,0.80000000000000004,1
18:39:36.564,0.15328125655651093,1.3603711128234863,-8.382568359375,-0.11984225362539291,-0.70760190486907959,0.16085493564605713,-0.024926964193582535,-0.076699428260326385,0.24455936253070831,0.0,1.4161504507064819,0.0,0.0,0.0,0.12430744618177414,0.16450616717338562,0.0,0.0,0.0,0.0,0.025000000000000001,0.040000000000000001,0.29999999999999999,0.29999999999999999,0.80000000000000004,1
18:39:36.619,0.15328125655651093,1.3603711128234863,-8.382568359375,-0.11984225362539291,-0.70760190486907959,0.16085493564605713,-0.024926964193582535,-0.076699428260326385,0.24455936253070831,0.0,1.4161504507064819,0.0,0.0,0.0,0.12430744618177414,0.16450616717338562,0.0,0.0,0.0,0.0,0.025000000000000001,0.040000000000000001,0.29999999999999999,0.29999999999999999,0.80000000000000004,1
18:39:36.664,0.15328125655651093,1.3603711128234863,-8.382568359375,-0.11984225362539291,-0.70760190486907959,0.16085493564605713,-0.024926964193582535,-0.076699428260326385,0.24455936253070831,0.0,1.4161504507064819,0.0,0.0,0.0,0.12430744618177414,0.16450616717338562,0.0,0.0,0.0,0.0,0.025000000000000001,0.040000000000000001,0.29999999999999999,0.29999999999999999,0.80000000000000004,1
18:39:36.717,0.15328125655651093,1.3603711128234863,-8.382568359375,-0.11984225362539291,-0.70760190486907959,0.16085493564605713,-0.024926964193582535,-0.076699428260326385,0.24455936253070831,0.0,1.4161504507064819,0.0,0.0,0.0,0.12430744618177414,0.16450616717338562,0.0,0.0,0.0,0.0,0.025000000000000001,0.040000000000000001,0.29999999999999999,0.29999999999999999,0.80000000000000004,1
18:39:36.766,0.15328125655651093,1.3603711128234863,-8.382568359375,-0.11984225362539291,-0.70760190486907959,0.16085493564605713,-0.024926964193582535,-0.076699428260326385,0.24455936253070831,0.0,1.4161504507064819,0.0,0.0,0.0,0.12430744618177414,0.16450616717338562,0.0,0.0,0.0,0.0,0.025000000000000001,0.040000000000000001,0.29999999999999999,0.29999999999999999,0.80000000000000004,1
18:39:36.839,0.15328125655651093,0.22992187738418579,-8.382568359375,-0.08628641813993454,0.81892204284667969,-0.14247912168502808,-0.024926964193582535,-0.16701239347457886,0.0,0.0,0.61001205444335938,0.86490678787231445,0.0,0.0,1.349889874458313,0.16450616717338562,0.0,0.0,0.0,0.0,0.025000000000000001,0.040000000000000001,0.29999999999999999,0.29999999999999999,0.80000000000000004,1
18:39:36.863,-1.0442285537719727,0.22992187738418579,-9.6950397491455078,-0.08628641813993454,0.81892204284667969,-0.14247912168502808,-0.0070946854539215565,-0.16701239347457886,0.0,0.0,0.61001205444335938,0.86490678787231445,0.0,0.0,1.349889874458313,0.73672741651535034,0.0,0.0,0.0,0.0,0.025000000000000001,0.040000000000000001,0.29999999999999999,0.29999999999999999,0.80000000000000004,1
18:39:36.915,-1.0442285537719727,0.22992187738418579,-9.6950397491455078,-0.08628641813993454,0.81892204284667969,-0.14247912168502808,-0.0070946854539215565,-0.16701239347457886,0.0,0.0,0.61001205444335938,0.86490678787231445,0.0,0.0,1.349889874458313,0.73672741651535034,0.0,0.0,0.0,0.0,0.025000000000000001,0.040000000000000001,0.29999999999999999,0.29999999999999999,0.80000000000000004,1
18:39:36.967,-1.0442285537719727,0.22992187738418579,-9.6950397491455078,-0.08628641813993454,0.81892204284667969,-0.14247912168502808,-0.0070946854539215565,-0.16701239347457886,0.0,0.0,0.61001205444335938,0.86490678787231445,0.0,0.0,1.349889874458313,0.73672741651535034,0.0,0.0,0.0,0.0,0.025000000000000001,0.040000000000000001,0.29999999999999999,0.29999999999999999,0.80000000000000004,1
18:39:37.020,-1.0442285537719727,0.22992187738418579,-9.6950397491455078,-0.08628641813993454,0.81892204284667969,-0.14247912168502808,-0.0070946854539215565,-0.16701239347457886,0.0,0.0,0.61001205444335938,0.86490678787231445,0.0,0.0,1.349889874458313,0.73672741651535034,0.0,0.0,0.0,0.0,0.025000000000000001,0.040000000000000001,0.29999999999999999,0.29999999999999999,0.80000000000000004,1
18:39:37.064,-1.0442285537719727,0.22992187738418579,-9.6950397491455078,-0.08628641813993454,0.81892204284667969,-0.14247912168502808,-0.0070946854539215565,-0.16701239347457886,0.0,0.0,0.61001205444335938,0.86490678787231445,0.0,0.0,1.349889874458313,0.73672741651535034,0.0,0.0,0.0,0.0,0.025000000000000001,0.040000000000000001,0.29999999999999999,0.29999999999999999,0.80000000000000004,1
18:39:37.129,-1.0442285537719727,0.22992187738418579,-9.6950397491455078,-0.08628641813993454,0.81892204284667969,-0.14247912168502808,-0.0070946854539215565,-0.16701239347457886,0.0,0.0,0.61001205444335938,0.86490678787231445,0.0,0.0,1.349889874458313,0.73672741651535034,0.0,0.0,0.0,0.0,0.025000000000000001,0.040000000000000001,0.29999999999999999,0.29999999999999999,0.80000000000000004,1
18:39:37.187,1.5615527629852295,0.15328125655651093,-9.8866415023803711,0.0053263222798705101,0.40693101286888123,0.017310546711087227,-0.0070946854539215565,0.089546032249927521,0.0,0.043126914650201797,0.003077872097492218,0.6659013032913208,0.046026106923818588,0.0,1.0980100631713867,0.30818670988082886,0.0,0.0,0.0,0.0,0.025000000000000001,0.040000000000000001,0.29999999999999999,0.29999999999999999,0.80000000000000004,1
18:39:37.215,1.5615527629852295,0.15328125655651093,-9.8866415023803711,0.0053263222798705101,0.40693101286888123,0.017310546711087227,-0.016298595815896988,0.089546032249927521,0.0,0.043126914650201797,0.003077872097492218,0.6659013032913208,0.046026106923818588,0.0,1.0980100631713867,0.30818670988082886,0.0,0.0,0.0,0.0,0.025000000000000001,0.040000000000000001,0.29999999999999999,0.29999999999999999,0.80000000000000004,1
18:39:37.264,1.5615527629852295,0.15328125655651093,-9.8866415023803711,0.0053263222798705101,0.40693101286888123,0.017310546711087227,-0.016298595815896988,0.089546032249927521,0.0,0.043126914650201797,0.003077872097492218,0.6659013032913208,0.046026106923818588,0.0,1.0980100631713867,0.30818670988082886,0.0,0.0,0.0,0.0,0.025000000000000001,0.040000000000000001,0.29999999999999999,0.29999999999999999,0.80000000000000004,1
18:39:37.316,1.5615527629852295,0.15328125655651093,-9.8866415023803711,0.0053263222798705101,0.40693101286888123,0.017310546711087227,-0.016298595815896988,0.089546032249927521,0.0,0.043126914650201797,0.003077872097492218,0.6659013032913208,0.046026106923818588,0.0,1.0980100631713867,0.30818670988082886,0.0,0.0,0.0,0.0,0.025000000000000001,0.040000000000000001,0.29999999999999999,0.29999999999999999,0.80000000000000004,1
18:39:37.369,1.5615527629852295,0.15328125655651093,-9.8866415023803711,0.0053263222798705101,0.40693101286888123,0.017310546711087227,-0.016298595815896988,0.089546032249927521,0.0,0.043126914650201797,0.003077872097492218,0.6659013032913208,0.046026106923818588,0.0,1.0980100631713867,0.30818670988082886,0.0,0.0,0.0,0.0,0.025000000000000001,0.040000000000000001,0.29999999999999999,0.29999999999999999,0.80000000000000004,1
18:39:37.424,1.5615527629852295,0.15328125655651093,-9.8866415023803711,0.0053263222798705101,0.40693101286888123,0.017310546711087227,-0.016298595815896988,0.089546032249927521,0.0,0.043126914650201797,0.003077872097492218,0.6659013032913208,0.046026106923818588,0.0,1.0980100631713867,0.30818670988082886,0.0,0.0,-3.4371886379539697e-22,3.4371886379539697e-22,0.025000000000000001,0.040000000000000001,0.29999999999999999,0.29999999999999999,0.80000000000000004,1
18:39:37.985,1.6573536396026611,-0.39278322458267212,-9.3214168548583984,-0.1065264493227005,0.032224249094724655,0.11078750342130661,-0.010354343801736832,0.15742474794387817,0.42313295602798462,0.0,0.14726071059703827,0.0,0.11678262054920197,1.5996956825256348,0.0,0.017043184489011765,0.0,0.0,0.0,0.0,0.025000000000000001,0.040000000000000001,0.29999999999999999,0.29999999999999999,0.80000000000000004,1
18:39:38.027,1.6573536396026611,-0.39278322458267212,-9.3214168548583984,-0.1065264493227005,0.032224249094724655,0.11078750342130661,-0.010354343801736832,0.15742474794387817,0.42313295602798462,0.0,0.14726071059703827,0.0,0.11678262054920197,1.5996956825256348,0.0,0.017043184489011765,0.0,0.0,0.0,0.0,0.025000000000000001,0.040000000000000001,0.29999999999999999,0.29999999999999999,0.80000000000000004,1
18:39:38.078,1.6573536396026611,-0.39278322458267212,-9.3214168548583984,-0.1065264493227005,0.032224249094724655,0.11078750342130661,-0.010354343801736832,0.15742474794387817,0.42313295602798462,0.0,0.14726071059703827,0.0,0.11678262054920197,1.5996956825256348,0.0,0.017043184489011765,0.0,0.0,0.0,0.0,0.025000000000000001,0.040000000000000001,0.29999999999999999,0.29999999999999999,0.80000000000000004,1
18:39:38.161,1.6573536396026611,-0.39278322458267212,-9.3214168548583984,-0.1065264493227005,0.032224249094724655,0.11078750342130661,-0.010354343801736832,0.15742474794387817,0.42313295602798462,0.0,0.14726071059703827,0.0,0.11678262054920197,1.5996956825256348,0.0,0.017043184489011765,0.0,0.0,0.0,0.0,0.025000000000000001,0.040000000000000001,0.29999999999999999,0.29999999999999999,0.80000000000000004,1
18:39:38.194,0.71850591897964478,-0.6131250262260437,-9.9632816314697266,-0.027430560439825058,-0.14274543523788452,0.032490566372871399,-0.010354343801736832,0.04563552513718605,0.12755368649959564,0.0,1.1907825469970703,0.0,0.0,1.5996956825256348,0.0,0.017043184489011765,0.0,0.0,0.0,0.0,0.025000000000000001,0.040000000000000001,0.29999999999999999,0.29999999999999999,0.80000000000000004,1
18:39:38.233,0.71850591897964478,-0.6131250262260437,-9.9632816314697266,-0.027430560439825058,-0.14274543523788452,0.032490566372871399,-0.0084365047514438629,0.04563552513718605,0.12755368649959564,0.0,1.1907825469970703,0.0,0.0,0.55090069770812988,0.0,1.0595755577087402,0.0,0.0,0.0,0.0,0.025000000000000001,0.040000000000000001,0.29999999999999999,0.29999999999999999,0.80000000000000004,1
18:39:38.283,0.71850591897964478,-0.6131250262260437,-9.9632816314697266,-0.027430560439825058,-0.14274543523788452,0.032490566372871399,-0.0084365047514438629,0.04563552513718605,0.12755368649959564,0.0,1.1907825469970703,0.0,0.0,0.55090069770812988,0.0,1.0595755577087402,0.0,0.0,0.0,0.0,0.025000000000000001,0.040000000000000001,0.29999999999999999,0.29999999999999999,0.80000000000000004,1
18:39:38.331,0.71850591897964478,-0.6131250262260437,-9.9632816314697266,-0.027430560439825058,-0.14274543523788452,0.032490566372871399,-0.0084365047514438629,0.04563552513718605,0.12755368649959564,0.0,1.1907825469970703,0.0,0.0,0.55090069770812988,0.0,1.0595755577087402,0.0,0.0,0.0,0.0,0.025000000000000001,0.040000000000000001,0.29999999999999999,0.29999999999999999,0.80000000000000004,1
18:39:38.390,0.71850591897964478,-0.6131250262260437,-9.9632816314697266,-0.027430560439825058,-0.14274543523788452,0.032490566372871399,-0.0084365047514438629,0.04563552513718605,0.12755368649959564,0.0,1.1907825469970703,0.0,0.0,0.55090069770812988,0.0,1.0595755577087402,0.0,0.0,0.0,0.0,0.025000000000000001,0.040000000000000001,0.29999999999999999,0.29999999999999999,0.80000000000000004,1
18:39:38.429,0.71850591897964478,-0.6131250262260437,-9.9632816314697266,-0.027430560439825058,-0.14274543523788452,0.032490566372871399,-0.0084365047514438629,0.04563552513718605,0.12755368649959564,0.0,1.1907825469970703,0.0,0.0,0.55090069770812988,0.0,1.0595755577087402,0.0,0.0,0.0,0.0,0.025000000000000001,0.040000000000000001,0.29999999999999999,0.29999999999999999,0.80000000000000004,1
18:39:38.496,0.71850591897964478,-0.6131250262260437,-9.9632816314697266,-0.027430560439825058,-0.14274543523788452,0.032490566372871399,-0.0084365047514438629,0.04563552513718605,0.12755368649959564,0.0,1.1907825469970703,0.0,0.0,0.55090069770812988,0.0,1.0595755577087402,0.0,0.0,0.0,0.0,0.025000000000000001,0.040000000000000001,0.29999999999999999,0.29999999999999999,0.80000000000000004,1
18:39:38.534,0.83346682786941528,0.21076172590255737,-9.9153814315795898,-0.017310546711087227,0.27324032783508301,-0.015446335077285767,-0.014956299215555191,0.062509365379810333,0.041852705180644989,0.0,1.1727234125137329,0.14445731043815613,0.0,0.0,0.45106372237205505,0.77201753854751587,0.0,0.0,0.0,0.0,0.025000000000000001,0.040000000000000001,0.29999999999999999,0.29999999999999999,0.80000000000000004,1
18:39:38.590,0.83346682786941528,0.21076172590255737,-9.9153814315795898,-0.017310546711087227,0.27324032783508301,-0.015446335077285767,-0.014956299215555191,0.062509365379810333,0.041852705180644989,0.0,1.1727234125137329,0.14445731043815613,0.0,0.0,0.45106372237205505,0.77201753854751587,0.0,0.0,0.0,0.0,0.025000000000000001,0.040000000000000001,0.29999999999999999,0.29999999999999999,0.80000000000000004,1
18:39:38.630,0.83346682786941528,0.21076172590255737,-9.9153814315795898,-0.017310546711087227,0.27324032783508301,-0.015446335077285767,-0.014956299215555191,0.062509365379810333,0.041852705180644989,0.0,1.1727234125137329,0.14445731043815613,0.0,0.0,0.45106372237205505,0.77201753854751587,0.0,0.0,0.0,0.0,0.025000000000000001,0.040000000000000001,0.29999999999999999,0.29999999999999999,0.80000000000000004,1
18:39:38.689,0.83346682786941528,0.21076172590255737,-9.9153814315795898,-0.017310546711087227,0.27324032783508301,-0.015446335077285767,-0.014956299215555191,0.062509365379810333,0.041852705180644989,0.0,1.1727234125137329,0.14445731043815613,0.0,0.0,0.45106372237205505,0.77201753854751587,0.0,0.0,0.0,0.0,0.025000000000000001,0.040000000000000001,0.29999999999999999,0.29999999999999999,0.80000000000000004,1
18:39:38.728,0.83346682786941528,0.21076172590255737,-9.9153814315795898,-0.017310546711087227,0.27324032783508301,-0.015446335077285767,-0.014956299215555191,0.062509365379810333,0.041852705180644989,0.0,1.1727234125137329,0.14445731043815613,0.0,0.0,0.45106372237205505,0.77201753854751587,0.0,0.0,0.0,0.0,0.025000000000000001,0.040000000000000001,0.29999999999999999,0.29999999999999999,0.80000000000000004,1
18:39:38.789,0.83346682786941528,0.21076172590255737,-9.9153814315795898,-0.017310546711087227,0.27324032783508301,-0.015446335077285767,-0.014956299215555191,0.062509365379810333,0.041852705180644989,0.0,1.1727234125137329,0.14445731043815613,0.0,0.0,0.45106372237205505,0.77201753854751587,0.0,0.0,0.0,0.0,0.025000000000000001,0.040000000000000001,0.29999999999999999,0.29999999999999999,0.80000000000000004,1
18:39:38.854,0.83346682786941528,0.21076172590255737,-9.9153814315795898,0.014647386036813259,0.42104578018188477,0.0026631611399352551,-0.014956299215555191,0.1971161961555481,0.041852705180644989,0.38050499558448792,1.1727234125137329,0.42842480540275574,0.22727400064468384,0.0,0.54116851091384888,0.77201753854751587,0.0,0.0,0.0,0.0,0.025000000000000001,0.040000000000000001,0.29999999999999999,0.29999999999999999,0.80000000000000004,1
18:39:38.889,2.7015821933746338,0.28740236163139343,-9.8291606903076172,0.014647386036813259,0.42104578018188477,0.0026631611399352551,-0.022626224905252457,0.1971161961555481,0.013680147938430309,0.38050499558448792,0.0023714927956461906,0.42842480540275574,0.22727400064468384,0.11343645304441452,0.54116851091384888,0.0069845090620219707,0.0,0.0,0.0,0.0,0.025000000000000001,0.040000000000000001,0.29999999999999999,0.29999999999999999,0.80000000000000004,1
18:39:38.931,2.7015821933746338,0.28740236163139343,-9.8291606903076172,0.014647386036813259,0.42104578018188477,0.0026631611399352551,-0.022626224905252457,0.1971161961555481,0.013680147938430309,0.38050499558448792,0.0023714927956461906,0.42842480540275574,0.22727400064468384,0.11343645304441452,0.54116851091384888,0.0069845090620219707,0.0,0.0,0.0,0.0,0.025000000000000001,0.040000000000000001,0.29999999999999999,0.29999999999999999,0.80000000000000004,1
18:39:38.991,2.7015821933746338,0.28740236163139343,-9.8291606903076172,0.014647386036813259,0.42104578018188477,0.0026631611399352551,-0.022626224905252457,0.1971161961555481,0.013680147938430309,0.38050499558448792,0.0023714927956461906,0.42842480540275574,0.22727400064468384,0.11343645304441452,0.54116851091384888,0.0069845090620219707,0.0,0.0,0.0,0.0,0.025000000000000001,0.040000000000000001,0.29999999999999999,0.29999999999999999,0.80000000000000004,1
18:39:39.030,2.7015821933746338,0.28740236163139343,-9.8291606903076172,0.014647386036813259,0.42104578018188477,0.0026631611399352551,-0.022626224905252457,0.1971161961555481,0.013680147938430309,0.38050499558448792,0.0023714927956461906,0.42842480540275574,0.22727400064468384,0.11343645304441452,0.54116851091384888,0.0069845090620219707,0.0,0.0,0.0,0.0,0.025000000000000001,0.040000000000000001,0.29999999999999999,0.29999999999999999,0.80000000000000004,1
18:39:39.087,2.7015821933746338,0.28740236163139343,-9.8291606903076172,0.014647386036813259,0.42104578018188477,0.0026631611399352551,-0.022626224905252457,0.1971161961555481,0.013680147938430309,0.38050499558448792,0.0023714927956461906,0.42842480540275574,0.22727400064468384,0.11343645304441452,0.54116851091384888,0.0069845090620219707,0.0,0.0,0.0,0.0,0.025000000000000001,0.040000000000000001,0.29999999999999999,0.29999999999999999,0.80000000000000004,1
18:39:39.139,2.7015821933746338,0.28740236163139343,-9.8291606903076172,0.014647386036813259,0.42104578018188477,0.0026631611399352551,-0.022626224905252457,0.1971161961555481,0.013680147938430309,0.38050499558448792,0.0023714927956461906,0.42842480540275574,0.22727400064468384,0.11343645304441452,0.54116851091384888,0.0069845090620219707,0.0,0.0,0.0,0.0,0.025000000000000001,0.040000000000000001,0.29999999999999999,0.29999999999999999,0.80000000000000004,1
18:39:39.198,2.7015821933746338,0.28740236163139343,-9.8291606903076172,0.001597896683961153,-1.0610034465789795,-0.034088462591171265,-0.022626224905252457,0.1510966420173645,0.013680147938430309,0.38349241018295288,0.0019825957715511322,0.49655982851982117,0.31823566555976868,0.11343645304441452,0.38304474949836731,0.0069845090620219707,0.0,0.0,0.0,0.0,0.025000000000000001,0.040000000000000001,0.29999999999999999,0.29999999999999999,0.80000000000000004,1
18:39:39.231,2.39501953125,0.25866213440895081,-11.170372009277344,0.001597896683961153,-1.0610034465789795,-0.034088462591171265,-0.023392979055643082,0.1510966420173645,0.0,0.38349241018295288,0.0019825957715511322,0.49655982851982117,0.31823566555976868,0.0,0.38304474949836731,0.00070094992406666279,0.0,0.0,1.2417630479433228e-08,1.2417630479433228e-08,0.025000000000000001,0.040000000000000001,0.29999999999999999,0.29999999999999999,0.80000000000000004,1
18:39:39.531,2.39501953125,0.25866213440895081,-11.170372009277344,-0.063383236527442932,0.030626352876424789,0.21758025884628296,-0.023392979055643082,0.099133320152759552,0.0,0.38349241018295288,0.0019825957715511322,0.0,0.096123367547988892,0.0,0.0,0.00070094992406666279,0.0,0.0,0.0,0.0,0.025000000000000001,0.040000000000000001,0.29999999999999999,0.29999999999999999,0.80000000000000004,1
18:39:39.561,0.047900393605232239,-0.64186525344848633,-7.1658987998962402,-0.063383236527442932,0.030626352876424789,0.21758025884628296,-0.01553136482834816,0.099133320152759552,0.31578019261360168,0.0,0.068168953061103821,0.0,0.096123367547988892,1.4538615942001343,0.0,0.0015523143811151385,0.0,0.0,0.0,0.0,0.025000000000000001,0.040000000000000001,0.29999999999999999,0.29999999999999999,0.80000000000000004,1
18:39:39.603,0.047900393605232239,-0.64186525344848633,-7.1658987998962402,-0.063383236527442932,0.030626352876424789,0.21758025884628296,-0.01553136482834816,0.099133320152759552,0.31578019261360168,0.0,0.068168953061103821,0.0,0.096123367547988892,1.4538615942001343,0.0,0.0015523143811151385,0.0,0.0,0.0,0.0,0.025000000000000001,0.040000000000000001,0.29999999999999999,0.29999999999999999,0.80000000000000004,1
18:39:39.655,0.047900393605232239,-0.64186525344848633,-7.1658987998962402,-0.063383236527442932,0.030626352876424789,0.21758025884628296,-0.01553136482834816,0.099133320152759552,0.31578019261360168,0.0,0.068168953061103821,0.0,0.096123367547988892,1.4538615942001343,0.0,0.0015523143811151385,0.0,0.0,0.0,0.0,0.025000000000000001,0.040000000000000001,0.29999999999999999,0.29999999999999999,0.80000000000000004,1
18:39:39.702,0.047900393605232239,-0.64186525344848633,-7.1658987998962402,-0.063383236527442932,0.030626352876424789,0.21758025884628296,-0.01553136482834816,0.099133320152759552,0.31578019261360168,0.0,0.068168953061103821,0.0,0.096123367547988892,1.4538615942001343,0.0,0.0015523143811151385,0.0,0.0,0.0,0.0,0.025000000000000001,0.040000000000000001,0.29999999999999999,0.29999999999999999,0.80000000000000004,1
18:39:39.752,0.047900393605232239,-0.64186525344848633,-7.1658987998962402,-0.063383236527442932,0.030626352876424789,0.21758025884628296,-0.01553136482834816,0.099133320152759552,0.31578019261360168,0.0,0.068168953061103821,0.0,0.096123367547988892,1.4538615942001343,0.0,0.0015523143811151385,0.0,0.0,0.0,0.0,0.025000000000000001,0.040000000000000001,0.29999999999999999,0.29999999999999999,0.80000000000000004,1
18:39:39.818,0.047900393605232239,-0.64186525344848633,-7.1658987998962402,-0.063383236527442932,0.030626352876424789,0.21758025884628296,-0.01553136482834816,0.099133320152759552,0.31578019261360168,0.0,0.068168953061103821,0.0,0.096123367547988892,1.4538615942001343,0.0,0.0015523143811151385,0.0,0.0,0.0,0.0,0.025000000000000001,0.040000000000000001,0.29999999999999999,0.29999999999999999,0.80000000000000004,1
18:39:39.861,0.047900393605232239,-0.64186525344848633,-7.1658987998962402,0.031957931816577911,0.0090547483414411545,0.035952676087617874,-0.01553136482834816,-0.09913366287946701,0.31578019261360168,0.0,0.068168953061103821,0.028142642229795456,0.0,1.4538615942001343,0.32262119650840759,0.0015523143811151385,0.0,0.0,0.0,0.0,0.025000000000000001,0.040000000000000001,0.29999999999999999,0.29999999999999999,0.80000000000000004,1
18:39:39.902,-0.93884772062301636,0.028740234673023224,-10.039922714233398,0.031957931816577911,0.0090547483414411545,0.035952676087617874,-0.0036428610328584909,-0.09913366287946701,0.0,0.0,1.9165796041488647,0.028142642229795456,0.0,0.0,0.32262119650840759,1.2905398607254028,0.0,0.0,0.0,0.0,0.025000000000000001,0.040000000000000001,0.29999999999999999,0.29999999999999999,0.80000000000000004,1
18:39:39.953,-0.93884772062301636,0.028740234673023224,-10.039922714233398,0.031957931816577911,0.0090547483414411545,0.035952676087617874,-0.0036428610328584909,-0.09913366287946701,0.0,0.0,1.9165796041488647,0.028142642229795456,0.0,0.0,0.32262119650840759,1.2905398607254028,0.0,0.0,0.0,0.0,0.025000000000000001,0.040000000000000001,0.29999999999999999,0.29999999999999999,0.80000000000000004,1
18:39:40.001,-0.93884772062301636,0.028740234673023224,-10.039922714233398,0.031957931816577911,0.0090547483414411545,0.035952676087617874,-0.0036428610328584909,-0.09913366287946701,0.0,0.0,1.9165796041488647,0.028142642229795456,0.0,0.0,0.32262119650840759,1.2905398607254028,0.0,0.0,0.0,0.0,0.025000000000000001,0.040000000000000001,0.29999999999999999,0.29999999999999999,0.80000000000000004,1
18:39:40.058,-0.93884772062301636,0.028740234673023224,-10.039922714233398,0.031957931816577911,0.0090547483414411545,0.035952676087617874,-0.0036428610328584909,-0.09913366287946701,0.0,0.0,1.9165796041488647,0.028142642229795456,0.0,0.0,0.32262119650840759,1.2905398607254028,0.0,0.0,0.0,0.0,0.025000000000000001,0.040000000000000001,0.29999999999999999,0.29999999999999999,0.80000000000000004,1
18:39:40.108,-0.93884772062301636,0.028740234673023224,-10.039922714233398,0.031957931816577911,0.0090547483414411545,0.035952676087617874,-0.0036428610328584909,-0.09913366287946701,0.0,0.0,1.9165796041488647,0.028142642229795456,0.0,0.0,0.32262119650840759,1.2905398607254028,0.0,0.0,0.0,0.0,0.025000000000000001,0.040000000000000001,0.29999999999999999,0.29999999999999999,0.80000000000000004,1
18:39:40.194,-0.93884772062301636,0.028740234673023224,-10.039922714233398,0.031957931816577911,0.0090547483414411545,0.035952676087617874,-0.0036428610328584909,-0.09913366287946701,0.0,0.0,1.9165796041488647,0.028142642229795456,0.0,0.0,0.32262119650840759,1.2905398607254028,0.0,0.0,0.0,0.0,0.025000000000000001,0.040000000000000001,0.29999999999999999,0.29999999999999999,0.80000000000000004,1
18:39:40.216,0.92926764488220215,0.36404299736022949,-10.212363243103027,-0.02130528911948204,0.88603371381759644,-0.021571604534983635,-0.013230625540018082,0.042567554861307144,0.0,0.0,0.53843915462493896,0.4261772632598877,0.022572673857212067,0.0,0.62261563539505005,0.6037251353263855,0.0,0.0,0.0,0.0,0.025000000000000001,0.040000000000000001,0.29999999999999999,0.29999999999999999,0.80000000000000004,1
18:39:40.269,0.92926764488220215,0.36404299736022949,-10.212363243103027,-0.02130528911948204,0.88603371381759644,-0.021571604534983635,-0.013230625540018082,0.042567554861307144,0.0,0.0,0.53843915462493896,0.4261772632598877,0.022572673857212067,0.0,0.62261563539505005,0.6037251353263855,0.0,0.0,0.0,0.0,0.025000000000000001,0.040000000000000001,0.29999999999999999,0.29999999999999999,0.80000000000000004,1
18:39:40.320,0.92926764488220215,0.36404299736022949,-10.212363243103027,-0.02130528911948204,0.88603371381759644,-0.021571604534983635,-0.013230625540018082,0.042567554861307144,0.0,0.0,0.53843915462493896,0.4261772632598877,0.022572673857212067,0.0,0.62261563539505005,0.6037251353263855,0.0,0.0,0.0,0.0,0.025000000000000001,0.040000000000000001,0.29999999999999999,0.29999999999999999,0.80000000000000004,1
18:39:40.365,0.92926764488220215,0.36404299736022949,-10.212363243103027,-0.02130528911948204,0.88603371381759644,-0.021571604534983635,-0.013230625540018082,0.042567554861307144,0.0,0.0,0.53843915462493896,0.4261772632598877,0.022572673857212067,0.0,0.62261563539505005,0.6037251353263855,0.0,0.0,0.0,0.0,0.025000000000000001,0.040000000000000001,0.29999999999999999,0.29999999999999999,0.80000000000000004,1
18:39:40.417,0.92926764488220215,0.36404299736022949,-10.212363243103027,-0.02130528911948204,0.88603371381759644,-0.021571604534983635,-0.013230625540018082,0.042567554861307144,0.0,0.0,0.53843915462493896,0.4261772632598877,0.022572673857212067,0.0,0.62261563539505005,0.6037251353263855,0.0,0.0,0.0,0.0,0.025000000000000001,0.040000000000000001,0.29999999999999999,0.29999999999999999,0.80000000000000004,1
18:39:40.463,0.92926764488220215,0.36404299736022949,-10.212363243103027,-0.02130528911948204,0.88603371381759644,-0.021571604534983635,-0.013230625540018082,0.042567554861307144,0.0,0.0,0.53843915462493896,0.4261772632598877,0.022572673857212067,0.0,0.62261563539505005,0.6037251353263855,0.0,0.0,0.0,0.0,0.025000000000000001,0.040000000000000001,0.29999999999999999,0.29999999999999999,0.80000000000000004,1
18:39:40.530,0.92926764488220215,0.36404299736022949,-10.212363243103027,-0.02130528911948204,0.88603371381759644,-0.021571604534983635,-0.013230625540018082,0.26883012056350708,0.0,0.0,0.53843915462493896,0.42506009340286255,0.3653503954410553,0.0,0.62261563539505005,0.6037251353263855,0.0,0.0,0.0,0.0,0.025000000000000001,0.040000000000000001,0.29999999999999999,0.29999999999999999,0.80000000000000004,1
18:39:40.562,3.7074904441833496,0.13412110507488251,-9.6950397491455078,0.007190534844994545,-0.034354779869318008,-0.060453757643699646,-0.019941631704568863,0.26883012056350708,0.0,0.55781954526901245,0.0049618403427302837,0.42506009340286255,0.3653503954410553,0.086802355945110321,0.39412826299667358,0.0024211530108004808,0.0,0.0,0.0,0.0,0.025000000000000001,0.040000000000000001,0.29999999999999999,0.29999999999999999,0.80000000000000004,1
18:39:40.613,3.7074904441833496,0.13412110507488251,-9.6950397491455078,0.007190534844994545,-0.034354779869318008,-0.060453757643699646,-0.019941631704568863,0.26883012056350708,0.0,0.55781954526901245,0.0049618403427302837,0.42506009340286255,0.3653503954410553,0.086802355945110321,0.39412826299667358,0.0024211530108004808,0.0,0.0,0.0,0.0,0.025000000000000001,0.040000000000000001,0.29999999999999999,0.29999999999999999,0.80000000000000004,1
18:39:40.663,3.7074904441833496,0.13412110507488251,-9.6950397491455078,0.007190534844994545,-0.034354779869318008,-0.060453757643699646,-0.019941631704568863,0.26883012056350708,0.0,0.55781954526901245,0.0049618403427302837,0.42506009340286255,0.3653503954410553,0.086802355945110321,0.39412826299667358,0.0024211530108004808,0.0,0.0,0.0,0.0,0.025000000000000001,0.040000000000000001,0.29999999999999999,0.29999999999999999,0.80000000000000004,1
18:39:40.719,3.7074904441833496,0.13412110507488251,-9.6950397491455078,0.007190534844994545,-0.034354779869318008,-0.060453757643699646,-0.019941631704568863,0.26883012056350708,0.0,0.55781954526901245,0.0049618403427302837,0.42506009340286255,0.3653503954410553,0.086802355945110321,0.39412826299667358,0.0024211530108004808,0.0,0.0,0.0,0.0,0.025000000000000001,0.040000000000000001,0.29999999999999999,0.29999999999999999,0.80000000000000004,1
18:39:40.764,3.7074904441833496,0.13412110507488251,-9.6950397491455078,0.007190534844994545,-0.034354779869318008,-0.060453757643699646,-0.019941631704568863,0.26883012056350708,0.0,0.55781954526901245,0.0049618403427302837,0.42506009340286255,0.3653503954410553,0.086802355945110321,0.39412826299667358,0.0024211530108004808,0.0,0.0,0.0,0.0,0.025000000000000001,0.040000000000000001,0.29999999999999999,0.29999999999999999,0.80000000000000004,1
18:39:55.713,1.0538086891174316,0.10538086295127869,-9.9632816314697266,0.012250540778040886,-0.021038973703980446,0.0074568511918187141,-0.019749943166971207,0.076698608696460724,0.0,0.33612087368965149,0.0032755627762526274,0.7816537618637085,0.35571408271789551,0.0,0.836142897605896,0.0023645588662475348,0.0,0.0,0.0,0.0,0.025000000000000001,0.040000000000000001,0.29999999999999999,0.29999999999999999,0.80000000000000004,1
18:39:55.764,1.0538086891174316,0.10538086295127869,-9.9632816314697266,0.012250540778040886,-0.021038973703980446,0.0074568511918187141,-0.019749943166971207,0.076698608696460724,0.0,0.33612087368965149,0.0032755627762526274,0.7816537618637085,0.35571408271789551,0.0,0.836142897605896,0.0023645588662475348,0.0,0.0,0.0,0.0,0.025000000000000001,0.040000000000000001,0.29999999999999999,0.29999999999999999,0.80000000000000004,1
18:39:55.816,1.0538086891174316,0.10538086295127869,-9.9632816314697266,0.012250540778040886,-0.021038973703980446,0.0074568511918187141,-0.019749943166971207,0.076698608696460724,0.0,0.33612087368965149,0.0032755627762526274,0.7816537618637085,0.35571408271789551,0.0,0.836142897605896,0.0023645588662475348,0.0,0.0,-7.9275314492737228e-24,7.9275314492737228e-24,0.025000000000000001,0.040000000000000001,0.29999999999999999,0.29999999999999999,0.80000000000000004,1
18:39:55.873,1.0538086891174316,0.10538086295127869,-9.9632816314697266,0.012250540778040886,-0.021038973703980446,0.0074568511918187141,-0.019749943166971207,0.076698608696460724,0.0,0.33612087368965149,0.0032755627762526274,0.7816537618637085,0.35571408271789551,0.0,0.836142897605896,0.0023645588662475348,0.0,0.0,-7.9275314492737228e-24,7.9275314492737228e-24,0.025000000000000001,0.040000000000000001,0.29999999999999999,0.29999999999999999,0.80000000000000004,1
18:39:55.915,1.0538086891174316,0.10538086295127869,-9.9632816314697266,0.012250540778040886,-0.021038973703980446,0.0074568511918187141,-0.019749943166971207,0.076698608696460724,0.0,0.33612087368965149,0.0032755627762526274,0.7816537618637085,0.35571408271789551,0.0,0.836142897605896,0.0023645588662475348,0.0,0.0,-7.9275314492737228e-24,7.9275314492737228e-24,0.025000000000000001,0.040000000000000001,0.29999999999999999,0.29999999999999999,0.80000000000000004,1
18:39:55.995,1.0538086891174316,0.10538086295127869,-9.9632816314697266,0.012250540778040886,-0.021038973703980446,0.0074568511918187141,-0.019749943166971207,0.076698608696460724,0.0,0.33612087368965149,0.0032755627762526274,0.7816537618637085,0.35571408271789551,0.0,0.836142897605896,0.0023645588662475348,0.0,0.0,-7.9275314492737228e-24,7.9275314492737228e-24,0.025000000000000001,0.040000000000000001,0.29999999999999999,0.29999999999999999,0.80000000000000004,1
18:39:56.022,0.62270510196685791,0.3544628918170929,-10.030342102050781,0.00026631611399352551,0.056991647928953171,0.017843179404735565,-0.022242370992898941,0.073438949882984161,0.0,0.41823151707649231,0.0046370564959943295,0.80577301979064941,0.35842990875244141,0.0,0.79931306838989258,0.0036271449644118547,0.0,0.0,-7.9275314492737228e-24,7.9275314492737228e-24,0.025000000000000001,0.040000000000000001,0.29999999999999999,0.29999999999999999,0.80000000000000004,1
18:39:56.067,0.62270510196685791,0.3544628918170929,-10.030342102050781,0.00026631611399352551,0.056991647928953171,0.017843179404735565,-0.022242370992898941,0.073438949882984161,0.0,0.41823151707649231,0.0046370564959943295,0.80577301979064941,0.35842990875244141,0.0,0.79931306838989258,0.0036271449644118547,0.0,0.0,-7.9275314492737228e-24,7.9275314492737228e-24,0.025000000000000001,0.040000000000000001,0.29999999999999999,0.29999999999999999,0.80000000000000004,1
18:39:56.117,0.62270510196685791,0.3544628918170929,-10.030342102050781,0.00026631611399352551,0.056991647928953171,0.017843179404735565,-0.022242370992898941,0.073438949882984161,0.0,0.41823151707649231,0.0046370564959943295,0.80577301979064941,0.35842990875244141,0.0,0.79931306838989258,0.0036271449644118547,0.0,0.0,-7.9275314492737228e-24,7.9275314492737228e-24,0.025000000000000001,0.040000000000000001,0.29999999999999999,0.29999999999999999,0.80000000000000004,1
18:39:56.173,0.62270510196685791,0.3544628918170929,-10.030342102050781,0.00026631611399352551,0.056991647928953171,0.017843179404735565,-0.022242370992898941,0.073438949882984161,0.0,0.41823151707649231,0.0046370564959943295,0.80577301979064941,0.35842990875244141,0.0,0.79931306838989258,0.0036271449644118547,0.0,0.0,-7.9275314492737228e-24,7.9275314492737228e-24,0.025000000000000001,0.040000000000000001,0.29999999999999999,0.29999999999999999,0.80000000000000004,1
18:39:56.227,0.62270510196685791,0.3544628918170929,-10.030342102050781,0.00026631611399352551,0.056991647928953171,0.017843179404735565,-0.022242370992898941,0.073438949882984161,0.0,0.41823151707649231,0.0046370564959943295,0.80577301979064941,0.35842990875244141,0.0,0.79931306838989258,0.0036271449644118547,0.0,0.0,-7.9275314492737228e-24,7.9275314492737228e-24,0.025000000000000001,0.040000000000000001,0.29999999999999999,0.29999999999999999,0.80000000000000004,1
18:39:56.268,0.62270510196685791,0.3544628918170929,-10.030342102050781,0.00026631611399352551,0.056991647928953171,0.017843179404735565,-0.022242370992898941,0.073438949882984161,0.0,0.41823151707649231,0.0046370564959943295,0.80577301979064941,0.35842990875244141,0.0,0.79931306838989258,0.0036271449644118547,0.0,0.0,-7.9275314492737228e-24,7.9275314492737228e-24,0.025000000000000001,0.040000000000000001,0.29999999999999999,0.29999999999999999,0.80000000000000004,1
18:39:56.341,0.62270510196685791,0.3544628918170929,-10.030342102050781,0.00026631611399352551,0.019441075623035431,0.017843179404735565,-0.022242370992898941,0.076315231621265411,0.0,0.41823151707649231,0.0046370564959943295,0.63347423076629639,0.41459253430366516,0.0,0.76771712303161621,0.0036271449644118547,0.0,0.0,-7.9275314492737228e-24,7.9275314492737228e-24,0.025000000000000001,0.040000000000000001,0.29999999999999999,0.29999999999999999,0.80000000000000004,1
18:39:56.374,1.1783496141433716,0.55564457178115845,-9.9441213607788086,-0.054328486323356628,0.019441075623035431,0.0034621094819158316,-0.033364120870828629,0.076315231621265411,0.0,0.40518584847450256,0.0035931973252445459,0.63347423076629639,0.41459253430366516,0.0,0.76771712303161621,0.0023928484879434109,0.036515194922685623,-0.0021018832921981812,-1.358663413916984e-19,0.036575639073237638,0.025000000000000001,0.040000000000000001,0.29999999999999999,0.29999999999999999,0.80000000000000004,1
18:39:56.420,1.1783496141433716,0.55564457178115845,-9.9441213607788086,-0.054328486323356628,0.019441075623035431,0.0034621094819158316,-0.033364120870828629,0.076315231621265411,0.0,0.40518584847450256,0.0035931973252445459,0.63347423076629639,0.41459253430366516,0.0,0.76771712303161621,0.0023928484879434109,0.036515194922685623,-0.0021018832921981812,-1.358663413916984e-19,0.036575639073237638,0.025000000000000001,0.040000000000000001,0.29999999999999999,0.29999999999999999,0.80000000000000004,1
18:39:56.469,1.1783496141433716,0.55564457178115845,-9.9441213607788086,-0.054328486323356628,0.019441075623035431,0.0034621094819158316,-0.033364120870828629,0.076315231621265411,0.0,0.40518584847450256,0.0035931973252445459,0.63347423076629639,0.41459253430366516,0.0,0.76771712303161621,0.0023928484879434109,0.036515194922685623,-0.0021018832921981812,-1.358663413916984e-19,0.036575639073237638,0.025000000000000001,0.040000000000000001,0.29999999999999999,0.29999999999999999,0.80000000000000004,1
18:39:56.516,1.1783496141433716,0.55564457178115845,-9.9441213607788086,-0.054328486323356628,0.019441075623035431,0.0034621094819158316,-0.033364120870828629,0.076315231621265411,0.0,0.40518584847450256,0.0035931973252445459,0.63347423076629639,0.41459253430366516,0.0,0.76771712303161621,0.0023928484879434109,0.036515194922685623,-0.0021018832921981812,-1.358663413916984e-19,0.036575639073237638,0.025000000000000001,0.040000000000000001,0.29999999999999999,0.29999999999999999,0.80000000000000004,1
18:39:56.573,1.1783496141433716,0.55564457178115845,-9.9441213607788086,-0.054328486323356628,0.019441075623035431,0.0034621094819158316,-0.033364120870828629,0.076315231621265411,0.0,0.40518584847450256,0.0035931973252445459,0.63347423076629639,0.41459253430366516,0.0,0.76771712303161621,0.0023928484879434109,0.036515194922685623,-0.0021018832921981812,-1.358663413916984e-19,0.036575639073237638,0.025000000000000001,0.040000000000000001,0.29999999999999999,0.29999999999999999,0.80000000000000004,1
18:39:56.639,1.1783496141433716,0.55564457178115845,-9.9441213607788086,-0.054328486323356628,0.019441075623035431,0.0034621094819158316,-0.033364120870828629,0.076315231621265411,0.0,0.40518584847450256,0.0035931973252445459,0.63347423076629639,0.41459253430366516,0.0,0.76771712303161621,0.0023928484879434109,0.036515194922685623,-0.0021018832921981812,-1.358663413916984e-19,0.036575639073237638,0.025000000000000001,0.040000000000000001,0.29999999999999999,0.29999999999999999,0.80000000000000004,1
18:39:56.677,1.1783496141433716,0.55564457178115845,-9.9441213607788086,-0.054328486323356628,0.019441075623035431,0.0034621094819158316,-0.033364120870828629,0.071713276207447052,0.0,0.40518584847450256,0.0035931973252445459,0.0,0.41459253430366516,0.0,0.76771712303161621,0.0023928484879434109,0.036515194922685623,-0.0021018832921981812,-1.358663413916984e-19,0.036575639073237638,0.025000000000000001,0.040000000000000001,0.29999999999999999,0.29999999999999999,0.80000000000000004,1
18:39:56.716,1.197509765625,0.19160157442092896,-9.8866415023803711,0.059654809534549713,0.052197959274053574,-0.039414785802364349,-0.052922073751688004,0.071713276207447052,0.0,0.0,0.016781531274318695,0.0,0.58970630168914795,0.42347902059555054,0.99363338947296143,0.0013585559790953994,0.036515194922685623,-0.0021018832921981812,-1.358663413916984e-19,0.036575639073237638,0.025000000000000001,0.040000000000000001,0.29999999999999999,0.29999999999999999,0.80000000000000004,1
18:39:56.771,1.197509765625,0.19160157442092896,-9.8866415023803711,0.059654809534549713,0.052197959274053574,-0.039414785802364349,-0.052922073751688004,0.071713276207447052,0.0,0.0,0.016781531274318695,0.0,0.58970630168914795,0.42347902059555054,0.99363338947296143,0.0013585559790953994,0.036515194922685623,-0.0021018832921981812,-1.358663413916984e-19,0.036575639073237638,0.025000000000000001,0.040000000000000001,0.29999999999999999,0.29999999999999999,0.80000000000000004,1
18:39:56.821,1.197509765625,0.19160157442092896,-9.8866415023803711,0.059654809534549713,0.052197959274053574,-0.039414785802364349,-0.052922073751688004,0.071713276207447052,0.0,0.0,0.016781531274318695,0.0,0.58970630168914795,0.42347902059555054,0.99363338947296143,0.0013585559790953994,0.036515194922685623,-0.0021018832921981812,-1.358663413916984e-19,0.036575639073237638,0.025000000000000001,0.040000000000000001,0.29999999999999999,0.29999999999999999,0.80000000000000004,1
18:39:56.869,1.197509765625,0.19160157442092896,-9.8866415023803711,0.059654809534549713,0.052197959274053574,-0.039414785802364349,-0.052922073751688004,0.071713276207447052,0.0,0.0,0.016781531274318695,0.0,0.58970630168914795,0.42347902059555054,0.99363338947296143,0.0013585559790953994,0.036515194922685623,-0.0021018832921981812,-1.358663413916984e-19,0.036575639073237638,0.025000000000000001,0.040000000000000001,0.29999999999999999,0.29999999999999999,0.80000000000000004,1
18:39:56.919,1.197509765625,0.19160157442092896,-9.8866415023803711,0.059654809534549713,0.052197959274053574,-0.039414785802364349,-0.052922073751688004,0.071713276207447052,0.0,0.0,0.016781531274318695,0.0,0.58970630168914795,0.42347902059555054,0.99363338947296143,0.0013585559790953994,0.036515194922685623,-0.0021018832921981812,-1.358663413916984e-19,0.036575639073237638,0.025000000000000001,0.040000000000000001,0.29999999999999999,0.29999999999999999,0.80000000000000004,1
18:39:57.007,1.197509765625,0.19160157442092896,-9.8866415023803711,0.059654809534549713,0.052197959274053574,-0.039414785802364349,-0.052922073751688004,0.048703495413064957,0.0,0.0,0.016781531274318695,0.0,0.58970630168914795,0.42347902059555054,0.99363338947296143,0.0013585559790953994,0.096094191074371338,-0.0027657011523842812,-3.1478099071563168e-15,0.09613398286299224,0.025000000000000001,0.040000000000000001,0.29999999999999999,0.29999999999999999,0.80000000000000004,1
18:39:57.038,1.4370118379592896,2.9602441787719727,-11.994257926940918,0.31664985418319702,0.19520971179008484,-0.076699040830135345,-0.082451172173023224,0.048703495413064957,0.74887537956237793,0.0,1.831784725189209,0.0,0.0,0.0,0.013191486708819866,0.0029338763561099768,0.096094191074371338,-0.0027657011523842812,-3.1478099071563168e-15,0.09613398286299224,0.025000000000000001,0.040000000000000001,0.29999999999999999,0.29999999999999999,0.80000000000000004,1
18:39:57.082,1.4370118379592896,2.9602441787719727,-11.994257926940918,0.31664985418319702,0.19520971179008484,-0.076699040830135345,-0.082451172173023224,0.048703495413064957,0.74887537956237793,0.0,1.831784725189209,0.0,0.0,0.0,0.013191486708819866,0.0029338763561099768,0.096094191074371338,-0.0027657011523842812,-3.1478099071563168e-15,0.09613398286299224,0.025000000000000001,0.040000000000000001,0.29999999999999999,0.29999999999999999,0.80000000000000004,1
18:39:57.132,1.4370118379592896,2.9602441787719727,-11.994257926940918,0.31664985418319702,0.19520971179008484,-0.076699040830135345,-0.082451172173023224,0.048703495413064957,0.74887537956237793,0.0,1.831784725189209,0.0,0.0,0.0,0.013191486708819866,0.0029338763561099768,0.096094191074371338,-0.0027657011523842812,-3.1478099071563168e-15,0.09613398286299224,0.025000000000000001,0.040000000000000001,0.29999999999999999,0.29999999999999999,0.80000000000000004,1
18:39:57.179,1.4370118379592896,2.9602441787719727,-11.994257926940918,0.31664985418319702,0.19520971179008484,-0.076699040830135345,-0.082451172173023224,0.048703495413064957,0.74887537956237793,0.0,1.831784725189209,0.0,0.0,0.0,0.013191486708819866,0.0029338763561099768,0.096094191074371338,-0.0027657011523842812,-3.1478099071563168e-15,0.09613398286299224,0.025000000000000001,0.040000000000000001,0.29999999999999999,0.29999999999999999,0.80000000000000004,1
18:39:57.237,1.4370118379592896,2.9602441787719727,-11.994257926940918,0.31664985418319702,0.19520971179008484,-0.076699040830135345,-0.082451172173023224,0.048703495413064957,0.74887537956237793,0.0,1.831784725189209,0.0,0.0,0.0,0.013191486708819866,0.0029338763561099768,0.096094191074371338,-0.0027657011523842812,-3.1478099071563168e-15,0.09613398286299224,0.025000000000000001,0.040000000000000001,0.29999999999999999,0.29999999999999999,0.80000000000000004,1
18:39:57.279,1.4370118379592896,2.9602441787719727,-11.994257926940918,0.31664985418319702,0.19520971179008484,-0.076699040830135345,-0.082451172173023224,0.048703495413064957,0.74887537956237793,0.0,1.831784725189209,0.0,0.0,0.0,0.013191486708819866,0.0029338763561099768,0.096094191074371338,-0.0027657011523842812,-3.1478099071563168e-15,0.09613398286299224,0.025000000000000001,0.040000000000000001,0.29999999999999999,0.29999999999999999,0.80000000000000004,1
18:39:57.362,1.4370118379592896,2.9602441787719727,-11.994257926940918,0.13395699858665466,-0.036485306918621063,0.67244815826416016,-0.082451172173023224,0.0485118068754673,0.74887537956237793,0.15456509590148926,1.831784725189209,1.8092952966690063,0.0,0.0,0.0,0.0029338763561099768,0.096094191074371338,-0.0027657011523842812,-3.1478099071563168e-15,0.09613398286299224,0.025000000000000001,0.040000000000000001,0.29999999999999999,0.29999999999999999,0.80000000000000004,1
18:39:57.380,1.9734961986541748,0.89094728231430054,-10.49976634979248,0.13395699858665466,-0.036485306918621063,0.67244815826416016,0.059058364480733871,0.0485118068754673,0.001860746880993247,0.15456509590148926,0.0015961943427100778,1.8092952966690063,0.0,0.0,0.0,0.0054405597038567066,0.096094191074371338,-0.0027657011523842812,-3.1478099071563168e-15,0.09613398286299224,0.025000000000000001,0.040000000000000001,0.29999999999999999,0.29999999999999999,0.80000000000000004,1
18:39:57.437,1.9734961986541748,0.89094728231430054,-10.49976634979248,0.13395699858665466,-0.036485306918621063,0.67244815826416016,0.059058364480733871,0.0485118068754673,0.001860746880993247,0.15456509590148926,0.0015961943427100778,1.8092952966690063,0.0,0.0,0.0,0.0054405597038567066,0.096098959445953369,0.0,-3.1478099071563168e-15,0.096098959445953369,0.025000000000000001,0.040000000000000001,0.29999999999999999,0.29999999999999999,0.80000000000000004,1
18:39:57.487,1.9734961986541748,0.89094728231430054,-10.49976634979248,0.13395699858665466,-0.036485306918621063,0.67244815826416016,0.059058364480733871,0.0485118068754673,0.001860746880993247,0.15456509590148926,0.0015961943427100778,1.8092952966690063,0.0,0.0,0.0,0.0054405597038567066,0.096098959445953369,0.0,-3.1478099071563168e-15,0.096098959445953369,0.025000000000000001,0.040000000000000001,0.29999999999999999,0.29999999999999999,0.80000000000000004,1
18:39:57.537,1.9734961986541748,0.89094728231430054,-10.49976634979248,0.13395699858665466,-0.036485306918621063,0.67244815826416016,0.059058364480733871,0.0485118068754673,0.001860746880993247,0.15456509590148926,0.0015961943427100778,1.8092952966690063,0.0,0.0,0.0,0.0054405597038567066,0.096098959445953369,0.0,-3.1478099071563168e-15,0.096098959445953369,0.025000000000000001,0.040000000000000001,0.29999999999999999,0.29999999999999999,0.80000000000000004,1
18:39:57.583,1.9734961986541748,0.89094728231430054,-10.49976634979248,0.13395699858665466,-0.036485306918621063,0.67244815826416016,0.059058364480733871,0.0485118068754673,0.001860746880993247,0.15456509590148926,0.0015961943427100778,1.8092952966690063,0.0,0.0,0.0,0.0054405597038567066,0.096098959445953369,0.0,-3.1478099071563168e-15,0.096098959445953369,0.025000000000000001,0.040000000000000001,0.29999999999999999,0.29999999999999999,0.80000000000000004,1
18:39:57.675,1.9734961986541748,0.89094728231430054,-10.49976634979248,0.13395699858665466,-0.036485306918621063,0.67244815826416016,0.059058364480733871,0.0485118068754673,0.001860746880993247,0.15456509590148926,0.0015961943427100778,1.8092952966690063,0.0,0.0,0.0,0.0054405597038567066,0.096098959445953369,0.0,-3.1478099071563168e-15,0.096098959445953369,0.025000000000000001,0.040000000000000001,0.29999999999999999,0.29999999999999999,0.80000000000000004,1
18:39:57.700,0.057480469346046448,2.2321581840515137,-7.2808594703674316,-0.25539714097976685,-0.71505874395370483,0.26098978519439697,0.059058364480733871,0.02857000008225441,0.0,0.0,0.4008558988571167,0.0,0.0,0.0,0.57877647876739502,0.0054405597038567066,0.096098959445953369,0.0,-3.1478099071563168e-15,0.096098959445953369,0.025000000000000001,0.040000000000000001,0.29999999999999999,0.29999999999999999,0.80000000000000004,1
18:39:57.754,0.057480469346046448,2.2321581840515137,-7.2808594703674316,-0.25539714097976685,-0.71505874395370483,0.26098978519439697,0.073247604072093964,0.02857000008225441,0.0,0.0,0.4008558988571167,0.0,0.0,0.0,0.57877647876739502,0.0054709161631762981,0.096098959445953369,0.0,-3.1478099071563168e-15,0.096098959445953369,0.025000000000000001,0.040000000000000001,0.29999999999999999,0.29999999999999999,0.80000000000000004,1
18:39:57.795,0.057480469346046448,2.2321581840515137,-7.2808594703674316,-0.25539714097976685,-0.71505874395370483,0.26098978519439697,0.073247604072093964,0.02857000008225441,0.0,0.0,0.4008558988571167,0.0,0.0,0.0,0.57877647876739502,0.0054709161631762981,0.096098959445953369,0.0,-3.1478099071563168e-15,0.096098959445953369,0.025000000000000001,0.040000000000000001,0.29999999999999999,0.29999999999999999,0.80000000000000004,1
18:39:57.846,0.057480469346046448,2.2321581840515137,-7.2808594703674316,-0.25539714097976685,-0.71505874395370483,0.26098978519439697,0.073247604072093964,0.02857000008225441,0.0,0.0,0.4008558988571167,0.0,0.0,0.0,0.57877647876739502,0.0054709161631762981,0.096098959445953369,0.0,-3.1478099071563168e-15,0.096098959445953369,0.025000000000000001,0.040000000000000001,0.29999999999999999,0.29999999999999999,0.80000000000000004,1
18:39:57.900,0.057480469346046448,2.2321581840515137,-7.2808594703674316,-0.25539714097976685,-0.71505874395370483,0.26098978519439697,0.073247604072093964,0.02857000008225441,0.0,0.0,0.4008558988571167,0.0,0.0,0.0,0.57877647876739502,0.0054709161631762981,0.096102297306060791,-3.2677984762585766e-08,-3.1478099071563168e-15,0.096102297306066356,0.025000000000000001,0.040000000000000001,0.29999999999999999,0.29999999999999999,0.80000000000000004,1
18:39:57.950,0.057480469346046448,2.2321581840515137,-7.2808594703674316,-0.25539714097976685,-0.71505874395370483,0.26098978519439697,0.073247604072093964,0.02857000008225441,0.0,0.0,0.4008558988571167,0.0,0.0,0.0,0.57877647876739502,0.0054709161631762981,0.096102297306060791,-3.2677984762585766e-08,-3.1478099071563168e-15,0.096102297306066356,0.025000000000000001,0.040000000000000001,0.29999999999999999,0.29999999999999999,0.80000000000000004,1
18:39:58.032,0.057480469346046448,2.2321581840515137,-7.2808594703674316,0.21811290085315704,-0.15233281254768372,0.26098978519439697,0.073247604072093964,-0.030104812234640121,0.0,0.0,0.4008558988571167,0.0,0.0,0.0,0.087836839258670807,0.0054709161631762981,0.096102297306060791,-3.2677984762585766e-08,-3.1478099071563168e-15,0.096102297306066356,0.025000000000000001,0.040000000000000001,0.29999999999999999,0.29999999999999999,0.80000000000000004,1
18:39:58.053,-3.123105525970459,-0.92926764488220215,-2.5962011814117432,0.21811290085315704,-0.15233281254768372,0.082557998597621918,-0.099133320152759552,-0.030104812234640121,0.0,0.0,3.9516570568084717,0.0,0.0,0.0,0.087836839258670807,0.001635619904845953,0.096102297306060791,-3.2677984762585766e-08,-3.1478099071563168e-15,0.096102297306066356,0.025000000000000001,0.040000000000000001,0.29999999999999999,0.29999999999999999,0.80000000000000004,1
18:39:58.108,-3.123105525970459,-0.92926764488220215,-2.5962011814117432,0.21811290085315704,-0.15233281254768372,0.082557998597621918,-0.099133320152759552,-0.030104812234640121,0.0,0.0,3.9516570568084717,0.0,0.0,0.0,0.087836839258670807,0.001635619904845953,0.096102297306060791,-3.2677984762585766e-08,-3.1478099071563168e-15,0.096102297306066356,0.025000000000000001,0.040000000000000001,0.29999999999999999,0.29999999999999999,0.80000000000000004,1
18:39:58.154,-3.123105525970459,-0.92926764488220215,-2.5962011814117432,0.21811290085315704,-0.15233281254768372,0.082557998597621918,-0.099133320152759552,-0.030104812234640121,0.0,0.0,3.9516570568084717,0.0,0.0,0.0,0.087836839258670807,0.001635619904845953,0.096102297306060791,-3.2677984762585766e-08,-3.1478099071563168e-15,0.096102297306066356,0.025000000000000001,0.040000000000000001,0.29999999999999999,0.29999999999999999,0.80000000000000004,1
